File: data/phase_2a/Sergey/3/20.7/01 eis/C7D1_hr 0,1MFeCN6_in_1M_KCl_3306mL_symmetric_balanced_4_point_PEIS_10mV_C16.mpt
EC-Lab ASCII FILE
Nb header lines : 69

Potentio Electrochemical Impedance Spectroscopy

Run on channel : 16 (SN 21084)
User :
CE vs. WE compliance from -10 V to 10 V
Electrode connection : standard
Potential control : Ewe
Ewe ctrl range : min = -1,00 V, max = 1,00 V
Safety Limits :
	Do not start on E overload
Acquisition started on : 09/03/2025 12:01:18.206
Loaded Setting File :  C:\Users\IOMCguest\Desktop\Local Data\Sergey local\Interlaboratorz studz\Polarization\C7D1\SN50_C7D1_lr 0,1MFeCN6_in_1M_KCl_3306mL_symmetric_balanced_4_point_PEIS_10mV after night_C16.mpr
Saved on :
	File : C7D1_hr 0,1MFeCN6_in_1M_KCl_3306mL_symmetric_balanced_4_point_PEIS_10mV_C16.mpr
	Directory : C:\Users\IOMCguest\Desktop\Local Data\Sergey local\Interlaboratorz studz\Impedance\C7D1\
	Host : 10.232.56.37
Device : VMP3 (SN 0725)
Address : 10.232.56.42
EC-LAB for windows v11.61 (software)
Internet server v11.61 (firmware)
Command interpretor v11.61 (firmware)
Electrode material :
Initial state :
Electrolyte :
Comments :
Mass of active material : 0,001 mg
 at x = 0,000
Molecular weight of active material (at x = 0) : 0,001 g/mol
Atomic weight of intercalated ion : 0,001 g/mol
Acquisition started at : xo = 0,000
Number of e- transfered per intercalated ion : 1
for DX = 1, DQ = 26,802 mA.h
Battery capacity : 0,000 A.h
Electrode surface area : 0,000 cm?
Characteristic mass : 0,001 g
Volume (V) : 0,001 cm?
Cycle Definition : Charge/Discharge alternance
Mode                Single sine
E (V)               0,0000
vs.                 Eoc
tE (h:m:s)          0:00:0,0000
record              0
dI                  0,000
unit dI             mA
dt (s)              0,000
fi                  200,000
unit fi             kHz
ff                  10,000
unit ff             mHz
Nd                  10
Points              per decade
spacing             Logarithmic
Va (mV)             10,0
pw                  0,10
Na                  2
corr                0
E range min (V)     -1,000
E range max (V)     1,000
I Range             Auto
Bandwidth           5
nc cycles           200
goto Ns'            0
nr cycles           0
inc. cycle          0

freq/Hz	Re(Z)/Ohm	-Im(Z)/Ohm	|Z|/Ohm	Phase(Z)/deg	time/s	<Ewe>/V	<I>/mA	Cs/µF	Cp/µF	cycle number	I Range	|Ewe|/V	|I|/A	Ns	(Q-Qo)/mA.h	Re(Y)/Ohm-1	Im(Y)/Ohm-1	|Y|/Ohm-1	Phase(Y)/deg	Re(C)/nF	Im(C)/nF	|C|/nF	Phase(C)/deg	Re(M)	Im(M)	|M|	Phase(M)/deg	Re(Permittivity)	Im(Permittivity)	|Permittivity|	Phase(Permittivity)/deg	Re(Resistivity)/Ohm.cm	Im(Resistivity)/Ohm.cm	|Resistivity|/Ohm.cm	Phase(Resistivity)/deg	Re(Conductivity)/mS/cm	Im(Conductivity)/mS/cm	|Conductivity|/mS/cm	Phase(Conductivity)/deg	Tan(Delta)	Loss Angle(Delta)/deg	dq/mA.h	x	Pwe/W	Rwe/Ohm
1,9999814E+005	2,6014110E-001	-2,1414513E-002	2,6102102E-001	4,7059116E+000	1,306483235355699E+000	-4,7457800E-003	-5,2924919E+000	-3,7160877E+001	-2,5012171E-001	1,000000000000000E+000	9	1,0693545E-003	4,0968135E-003	0	-1,497540040776392E-003	3,8181942E+000	-3,1430933E-001	3,8311090E+000	-4,7059116E+000	-2,5012163E+002	3,0384504E+003	3,0487280E+003	-9,4705910E+001	0,0000000E+000	0,0000000E+000	0,0000000E+000	9,4705910E+001	0,0000000E+000	0,0000000E+000	0,0000000E+000	-9,4705910E+001	0,0000000E+000	0,0000000E+000	0,0000000E+000	4,7059116E+000	0,0000000E+000	0,0000000E+000	0,0000000E+000	-4,7059116E+000	1,2147888E+001	8,5294090E+001	-1,497540040776392E-003	5,587523238536620E-005	2,5117002E-005	8,9670050E-001
5,0224539E+004	2,8578192E-001	-1,8541012E-003	2,8578794E-001	3,7171939E-001	6,991483318706742E+000	-4,6105143E-003	-3,7246025E+000	-1,7091129E+003	-7,1936585E-002	1,000000000000000E+000	9	1,0921341E-002	3,8214844E-002	0	-8,044543170863425E-003	3,4990244E+000	-2,2701034E-002	3,4990981E+000	-3,7171939E-001	-7,1936577E+001	1,1087946E+004	1,1088180E+004	-9,0371719E+001	0,0000000E+000	0,0000000E+000	0,0000000E+000	9,0371719E+001	0,0000000E+000	0,0000000E+000	0,0000000E+000	-9,0371719E+001	0,0000000E+000	0,0000000E+000	0,0000000E+000	3,7171939E-001	0,0000000E+000	0,0000000E+000	0,0000000E+000	-3,7171939E-001	1,5413501E+002	8,9628281E+001	-1,290689827976825E-003	3,001527217082412E-004	1,7172333E-005	1,2378540E+000
1,2618766E+004	2,8767341E-001	1,2841099E-003	2,8767627E-001	-2,5575387E-001	9,875491189042805E+000	-4,5697782E-003	-3,5316927E+000	9,8220264E+003	1,9570296E-001	1,000000000000000E+000	9	1,0353741E-002	3,5990946E-002	0	-1,081984865934816E-002	3,4760950E+000	1,5516512E-002	3,4761295E+000	2,5575387E-001	1,9570195E+002	4,3842457E+004	4,3842895E+004	-8,9744247E+001	0,0000000E+000	0,0000000E+000	0,0000000E+000	8,9744247E+001	0,0000000E+000	0,0000000E+000	0,0000000E+000	-8,9744247E+001	0,0000000E+000	0,0000000E+000	0,0000000E+000	-2,5575387E-001	0,0000000E+000	0,0000000E+000	0,0000000E+000	2,5575387E-001	2,2402554E+002	8,9744247E+001	-4,049470806531605E-004	4,037031009215214E-004	1,6139053E-005	1,2939342E+000
3,1669595E+003	2,8966978E-001	2,4857556E-003	2,8968045E-001	-4,9166262E-001	1,300996400459553E+001	-4,5579155E-003	-3,4838707E+000	2,0217115E+004	1,4886674E+000	1,000000000000000E+000	9	1,0432824E-002	3,6014937E-002	0	-1,379271984460448E-002	3,4519527E+000	2,9622387E-002	3,4520798E+000	4,9166262E-001	1,4886627E+003	1,7347722E+005	1,7348361E+005	-8,9508339E+001	0,0000000E+000	0,0000000E+000	0,0000000E+000	8,9508339E+001	0,0000000E+000	0,0000000E+000	0,0000000E+000	-8,9508339E+001	0,0000000E+000	0,0000000E+000	0,0000000E+000	-4,9166262E-001	0,0000000E+000	0,0000000E+000	0,0000000E+000	4,9166262E-001	1,1653188E+002	8,9508339E+001	-4,325583899298345E-004	5,146249219112542E-004	1,5879188E-005	1,3082906E+000
7,9525409E+002	2,9225880E-001	3,3573657E-003	2,9227808E-001	-6,5816474E-001	1,581267885775014E+001	-4,5561246E-003	-3,4898367E+000	5,9609512E+004	7,8653917E+000	1,000000000000000E+000	9	1,0849384E-002	3,7120074E-002	0	-1,643440413417020E-002	3,4211733E+000	3,9301232E-002	3,4213991E+000	6,5816474E-001	7,8653955E+003	6,8468263E+005	6,8472781E+005	-8,9341835E+001	0,0000000E+000	0,0000000E+000	0,0000000E+000	8,9341835E+001	0,0000000E+000	0,0000000E+000	0,0000000E+000	-8,9341835E+001	0,0000000E+000	0,0000000E+000	0,0000000E+000	-6,5816474E-001	0,0000000E+000	0,0000000E+000	0,0000000E+000	6,5816474E-001	8,7050034E+001	8,9341835E+001	-4,150877837349326E-004	6,131897145372536E-004	1,5900130E-005	1,3055409E+000
1,9980818E+002	2,9537538E-001	4,2916317E-003	2,9540655E-001	-8,3241564E-001	1,861094853730174E+001	-4,5569455E-003	-3,4876742E+000	1,8560275E+005	3,9173199E+001	1,000000000000000E+000	9	1,0867072E-002	3,6786836E-002	0	-1,904498082394764E-002	3,3848081E+000	4,9179282E-002	3,3851652E+000	8,3241564E-001	3,9173063E+004	2,6961305E+006	2,6964150E+006	-8,9167587E+001	0,0000000E+000	0,0000000E+000	0,0000000E+000	8,9167587E+001	0,0000000E+000	0,0000000E+000	0,0000000E+000	-8,9167587E+001	0,0000000E+000	0,0000000E+000	0,0000000E+000	-8,3241564E-001	0,0000000E+000	0,0000000E+000	0,0000000E+000	8,3241564E-001	6,8825890E+001	8,9167587E+001	-4,153922420342786E-004	7,105938407905391E-004	1,5893142E-005	1,3065858E+000
5,0208866E+001	2,9957047E-001	5,7935696E-003	2,9962650E-001	-1,1079386E+000	2,142790539111593E+001	-4,5554158E-003	-3,4948518E+000	5,4713369E+005	2,0456226E+002	1,000000000000000E+000	9	1,0865415E-002	3,6263198E-002	0	-2,166596383708560E-002	3,3368645E+000	6,4533584E-002	3,3374884E+000	1,1079386E+000	2,0456264E+005	1,0577385E+007	1,0579363E+007	-8,8892059E+001	0,0000000E+000	0,0000000E+000	0,0000000E+000	8,8892059E+001	0,0000000E+000	0,0000000E+000	0,0000000E+000	-8,8892059E+001	0,0000000E+000	0,0000000E+000	0,0000000E+000	-1,1079386E+000	0,0000000E+000	0,0000000E+000	0,0000000E+000	1,1079386E+000	5,1707409E+001	8,8892059E+001	-4,321758061777807E-004	8,083862409598568E-004	1,5920503E-005	1,3034647E+000
1,2600809E+001	3,0546975E-001	7,6009887E-003	3,0556431E-001	-1,4253939E+000	2,426586464591674E+001	-4,5508370E-003	-3,4600623E+000	1,6616961E+006	1,0282212E+003	1,000000000000000E+000	9	1,0864774E-002	3,5556421E-002	0	-2,434824781931885E-002	3,2716210E+000	8,1407584E-002	3,2726336E+000	1,4253939E+000	1,0282198E+006	4,1322312E+007	4,1335104E+007	-8,8574608E+001	0,0000000E+000	0,0000000E+000	0,0000000E+000	8,8574608E+001	0,0000000E+000	0,0000000E+000	0,0000000E+000	-8,8574608E+001	0,0000000E+000	0,0000000E+000	0,0000000E+000	-1,4253939E+000	0,0000000E+000	0,0000000E+000	0,0000000E+000	1,4253939E+000	4,0188160E+001	8,8574608E+001	-4,115255672537399E-004	9,084658627061488E-004	1,5746180E-005	1,3152472E+000
3,1655185E+000	3,1188849E-001	9,3298219E-003	3,1202799E-001	-1,7134333E+000	2,743676767652505E+001	-4,5491583E-003	-3,4862571E+000	5,3889220E+006	4,8179414E+003	1,000000000000000E+000	9	1,0865862E-002	3,4823358E-002	0	-2,765979612823886E-002	3,2034078E+000	9,5826641E-002	3,2048407E+000	1,7134333E+000	4,8179395E+006	1,6105994E+008	1,6113198E+008	-8,8286568E+001	0,0000000E+000	0,0000000E+000	0,0000000E+000	8,8286568E+001	0,0000000E+000	0,0000000E+000	0,0000000E+000	-8,8286568E+001	0,0000000E+000	0,0000000E+000	0,0000000E+000	-1,7134333E+000	0,0000000E+000	0,0000000E+000	0,0000000E+000	1,7134333E+000	3,3429199E+001	8,8286568E+001	-4,724553956261118E-004	1,032024182536010E-003	1,5859536E-005	1,3048832E+000
7,9443753E-001	3,1847104E-001	2,0636665E-002	3,1913897E-001	-3,7075365E+000	3,814715517187142E+001	-4,5357887E-003	-3,9952207E+000	9,7078010E+006	4,0591977E+004	1,000000000000000E+000	10	1,0868950E-002	3,4057107E-002	0	-3,810820181404696E-002	3,1268733E+000	2,0261885E-001	3,1334312E+000	3,7075365E+000	4,0591960E+007	6,2642726E+008	6,2774106E+008	-8,6292465E+001	0,0000000E+000	0,0000000E+000	0,0000000E+000	8,6292465E+001	0,0000000E+000	0,0000000E+000	0,0000000E+000	-8,6292465E+001	0,0000000E+000	0,0000000E+000	0,0000000E+000	-3,7075365E+000	0,0000000E+000	0,0000000E+000	0,0000000E+000	3,7075365E+000	1,5432292E+001	8,6292465E+001	-1,679835637202483E-003	1,421868246704362E-003	1,8121476E-005	1,1353036E+000
1,9980818E-001	3,4233326E-001	4,8016209E-002	3,4568426E-001	-7,9843102E+000	7,668351321559749E+001	-4,5345863E-003	-3,8668942E+000	1,6588955E+007	3,2006306E+005	1,000000000000000E+000	10	1,0867944E-002	3,1438932E-002	0	-8,684018959264146E-002	2,8647707E+000	4,0181732E-001	2,8928132E+000	7,9843102E+000	3,2006317E+008	2,2819005E+009	2,3042376E+009	-8,2015686E+001	0,0000000E+000	0,0000000E+000	0,0000000E+000	8,2015686E+001	0,0000000E+000	0,0000000E+000	0,0000000E+000	-8,2015686E+001	0,0000000E+000	0,0000000E+000	0,0000000E+000	-7,9843102E+000	0,0000000E+000	0,0000000E+000	0,0000000E+000	7,9843102E+000	7,1295352E+000	8,2015686E+001	-1,421757957537617E-002	3,240124231578138E-003	1,7534765E-005	1,1726688E+000
5,0154075E-002	4,1144231E-001	8,9632116E-002	4,2109227E-001	-1,2289788E+001	2,294971071138571E+002	-4,5460146E-003	-3,5071855E+000	3,5403832E+007	1,6040689E+006	1,000000000000000E+000	10	1,0870604E-002	2,5815254E-002	0	-2,187214465408019E-001	2,3203549E+000	5,0548595E-001	2,3747764E+000	1,2289788E+001	1,6040689E+009	7,3632297E+009	7,5359263E+009	-7,7710213E+001	0,0000000E+000	0,0000000E+000	0,0000000E+000	7,7710213E+001	0,0000000E+000	0,0000000E+000	0,0000000E+000	-7,7710213E+001	0,0000000E+000	0,0000000E+000	0,0000000E+000	-1,2289788E+001	0,0000000E+000	0,0000000E+000	0,0000000E+000	1,2289788E+001	4,5903449E+000	7,7710213E+001	-4,526441108202603E-002	8,160791244549815E-003	1,5943717E-005	1,2962003E+000
1,2576789E-002	4,9889383E-001	4,7406066E-002	5,0114107E-001	-5,4280820E+000	8,376007920772536E+002	-4,5432309E-003	-2,4760585E+000	2,6694170E+008	2,3887148E+006	1,000000000000000E+000	10	1,0867718E-002	2,1685945E-002	0	-7,183143601106902E-001	1,9864980E+000	1,8876171E-001	1,9954461E+000	5,4280820E+000	2,3887160E+009	2,5138448E+010	2,5251684E+010	-8,4571915E+001	0,0000000E+000	0,0000000E+000	0,0000000E+000	8,4571915E+001	0,0000000E+000	0,0000000E+000	0,0000000E+000	-8,4571915E+001	0,0000000E+000	0,0000000E+000	0,0000000E+000	-5,4280820E+000	0,0000000E+000	0,0000000E+000	0,0000000E+000	5,4280820E+000	1,0523839E+001	8,4571915E+001	-7,825304211796813E-002	2,680127455965861E-002	1,1249305E-005	1,8348641E+000
7,9609563E+004	2,8615305E-001	-3,6815130E-003	2,8617674E-001	7,3710036E-001	1,051313547694677E+003	-4,7203009E-003	-4,2770996E+000	-5,4303595E+002	-8,9869551E-002	2,000000000000000E+000	9	1,5074579E-002	5,2675765E-002	0	-7,987072552011509E-001	3,4940548E+000	-4,4952895E-002	3,4943440E+000	-7,3710036E-001	-8,9869347E+001	6,9852925E+003	6,9858706E+003	-9,0737099E+001	0,0000000E+000	0,0000000E+000	0,0000000E+000	9,0737099E+001	0,0000000E+000	0,0000000E+000	0,0000000E+000	-9,0737099E+001	0,0000000E+000	0,0000000E+000	0,0000000E+000	7,3710036E-001	0,0000000E+000	0,0000000E+000	0,0000000E+000	-7,3710036E-001	7,7727020E+001	8,9262901E+001	-2,239522046816766E-003	2,980084156488073E-002	2,0189198E-005	1,1036220E+000
1,9995176E+004	2,8893939E-001	5,8576796E-004	2,8893998E-001	-1,1615580E-001	1,056299547771487E+003	-4,5772577E-003	-1,8147266E+000	1,3588430E+004	5,5847690E-002	2,000000000000000E+000	9	1,0097689E-002	3,4947358E-002	0	-8,023181689128702E-001	3,4609191E+000	7,0163347E-003	3,4609263E+000	1,1615580E-001	5,5848526E+001	2,7547766E+004	2,7547822E+004	-8,9883842E+001	0,0000000E+000	0,0000000E+000	0,0000000E+000	8,9883842E+001	0,0000000E+000	0,0000000E+000	0,0000000E+000	-8,9883842E+001	0,0000000E+000	0,0000000E+000	0,0000000E+000	-1,1615580E-001	0,0000000E+000	0,0000000E+000	0,0000000E+000	1,1615580E-001	4,9326593E+002	8,9883842E+001	-1,908753687980269E-004	2,993556961039010E-002	8,3064715E-006	2,5222850E+000
5,0216069E+003	2,9072595E-001	2,2282060E-003	2,9073450E-001	-4,3912247E-001	1,059145759293409E+003	-4,5552109E-003	-1,5962183E+000	1,4224011E+004	8,3548683E-001	2,000000000000000E+000	9	1,0787783E-002	3,7105273E-002	0	-8,035527968277004E-001	3,4394631E+000	2,6361018E-002	3,4395642E+000	4,3912247E-001	8,3549176E+002	1,0901044E+005	1,0901364E+005	-8,9560875E+001	0,0000000E+000	0,0000000E+000	0,0000000E+000	8,9560875E+001	0,0000000E+000	0,0000000E+000	0,0000000E+000	-8,9560875E+001	0,0000000E+000	0,0000000E+000	0,0000000E+000	-4,3912247E-001	0,0000000E+000	0,0000000E+000	0,0000000E+000	4,3912247E-001	1,3047534E+002	8,9560875E+001	-1,877632010380825E-004	2,998163523786730E-002	7,2711114E-006	2,8537517E+000
1,2604036E+003	2,9320359E-001	3,0186325E-003	2,9321912E-001	-5,8985907E-001	1,062172723383854E+003	-4,5636604E-003	-1,6063235E+000	4,1831195E+004	4,4333925E+000	2,000000000000000E+000	9	1,0810565E-002	3,6868554E-002	0	-8,049018063290401E-001	3,4102380E+000	3,5109583E-002	3,4104187E+000	5,8985907E-001	4,4333921E+003	4,3062103E+005	4,3064384E+005	-8,9410141E+001	0,0000000E+000	0,0000000E+000	0,0000000E+000	8,9410141E+001	0,0000000E+000	0,0000000E+000	0,0000000E+000	-8,9410141E+001	0,0000000E+000	0,0000000E+000	0,0000000E+000	-5,8985907E-001	0,0000000E+000	0,0000000E+000	0,0000000E+000	5,8985907E-001	9,7131264E+001	8,9410141E+001	-2,153128123441039E-004	3,003196859612485E-002	7,3307147E-006	2,8410594E+000
3,1672299E+002	2,9600656E-001	3,9437590E-003	2,9603282E-001	-7,6331890E-001	1,064972694263513E+003	-4,5726132E-003	-1,6385963E+000	1,2741781E+005	2,2613678E+001	2,000000000000000E+000	9	1,0861036E-002	3,6688622E-002	0	-8,061317868809783E-001	3,3777041E+000	4,5001883E-002	3,3780038E+000	7,6331890E-001	2,2613740E+004	1,6973139E+006	1,6974645E+006	-8,9236679E+001	0,0000000E+000	0,0000000E+000	0,0000000E+000	8,9236679E+001	0,0000000E+000	0,0000000E+000	0,0000000E+000	-8,9236679E+001	0,0000000E+000	0,0000000E+000	0,0000000E+000	-7,6331890E-001	0,0000000E+000	0,0000000E+000	0,0000000E+000	7,6331890E-001	7,5056961E+001	8,9236679E+001	-2,209856317357817E-004	3,007786082424410E-002	7,4926670E-006	2,7905672E+000
7,9516548E+001	2,9981333E-001	5,2305679E-003	2,9985896E-001	-9,9948549E-001	1,067778035943396E+003	-4,5685843E-003	-1,6715589E+000	3,8266059E+005	1,1643335E+002	2,000000000000000E+000	9	1,0860698E-002	3,6219355E-002	0	-8,073948998071320E-001	3,3343937E+000	5,8172107E-002	3,3349011E+000	9,9948549E-001	1,1643375E+005	6,6738975E+006	6,6749130E+006	-8,9000511E+001	0,0000000E+000	0,0000000E+000	0,0000000E+000	8,9000511E+001	0,0000000E+000	0,0000000E+000	0,0000000E+000	-8,9000511E+001	0,0000000E+000	0,0000000E+000	0,0000000E+000	-9,9948549E-001	0,0000000E+000	0,0000000E+000	0,0000000E+000	9,9948549E-001	5,7319462E+001	8,9000511E+001	-2,113096569875683E-004	3,012498926579229E-002	7,6366578E-006	2,7331281E+000
1,9980818E+001	3,0521834E-001	7,0774141E-003	3,0530038E-001	-1,3283386E+000	1,070570001649350E+003	-4,5713075E-003	-1,6792589E+000	1,1254658E+006	6,0482086E+002	2,000000000000000E+000	9	1,0865135E-002	3,5588343E-002	0	-8,087545316243221E-001	3,2745824E+000	7,5931139E-002	3,2754626E+000	1,3283386E+000	6,0482094E+005	2,6083316E+007	2,6090328E+007	-8,8671661E+001	0,0000000E+000	0,0000000E+000	0,0000000E+000	8,8671661E+001	0,0000000E+000	0,0000000E+000	0,0000000E+000	-8,8671661E+001	0,0000000E+000	0,0000000E+000	0,0000000E+000	-1,3283386E+000	0,0000000E+000	0,0000000E+000	0,0000000E+000	1,3283386E+000	4,3125687E+001	8,8671661E+001	-1,241950379990975E-004	3,017571895693607E-002	7,6764090E-006	2,7222171E+000
5,0144420E+000	3,1179443E-001	8,4062228E-003	3,1190774E-001	-1,5443652E+000	1,073450241519458E+003	-4,5725387E-003	-1,7042420E+000	3,7756925E+006	2,7424968E+003	2,000000000000000E+000	9	1,0863165E-002	3,4828138E-002	0	-8,100012581102070E-001	3,2049117E+000	8,6406946E-002	3,2060764E+000	1,5443652E+000	2,7424965E+006	1,0172170E+008	1,0175866E+008	-8,8455635E+001	0,0000000E+000	0,0000000E+000	0,0000000E+000	8,8455635E+001	0,0000000E+000	0,0000000E+000	0,0000000E+000	-8,8455635E+001	0,0000000E+000	0,0000000E+000	0,0000000E+000	-1,5443652E+000	0,0000000E+000	0,0000000E+000	0,0000000E+000	1,5443652E+000	3,7090908E+001	8,8455635E+001	2,762321293345860E-004	3,022223599836602E-002	7,7927125E-006	2,6830337E+000
1,2596742E+000	3,1727129E-001	1,5125129E-002	3,1763160E-001	-2,7293692E+000	1,080620935993415E+003	-4,5491192E-003	-2,0886183E+000	8,3533905E+006	1,8941467E+004	2,000000000000000E+000	10	1,0869302E-002	3,4219839E-002	0	-8,136099752171503E-001	3,1447299E+000	1,4991727E-001	3,1483014E+000	2,7293692E+000	1,8941472E+007	3,9732442E+008	3,9777565E+008	-8,7270630E+001	0,0000000E+000	0,0000000E+000	0,0000000E+000	8,7270630E+001	0,0000000E+000	0,0000000E+000	0,0000000E+000	-8,7270630E+001	0,0000000E+000	0,0000000E+000	0,0000000E+000	-2,7293692E+000	0,0000000E+000	0,0000000E+000	0,0000000E+000	2,7293692E+000	2,0976435E+001	8,7270630E+001	-2,109086606845278E-003	3,035688208559783E-002	9,5013738E-006	2,1780519E+000
3,1619310E-001	3,3339933E-001	3,7046038E-002	3,3545122E-001	-6,3404751E+000	1,105024195685837E+003	-4,5457669E-003	-2,0474215E+000	1,3587075E+007	1,6571078E+005	2,000000000000000E+000	10	1,0868768E-002	3,2400444E-002	0	-8,234736875733468E-001	2,9628248E+000	3,2921758E-001	2,9810593E+000	6,3404751E+000	1,6571083E+008	1,4913298E+009	1,5005082E+009	-8,3659523E+001	0,0000000E+000	0,0000000E+000	0,0000000E+000	8,3659523E+001	0,0000000E+000	0,0000000E+000	0,0000000E+000	-8,3659523E+001	0,0000000E+000	0,0000000E+000	0,0000000E+000	-6,3404751E+000	0,0000000E+000	0,0000000E+000	0,0000000E+000	6,3404751E+000	8,9995947E+000	8,3659523E+001	-2,734478516692951E-003	3,072491045550983E-002	9,3071003E-006	2,2202399E+000
7,9421178E-002	3,8004744E-001	7,6738179E-002	3,8771743E-001	-1,1415525E+001	1,201510652108613E+003	-4,5418767E-003	-1,9902064E+000	2,6113936E+007	1,0229741E+006	2,000000000000000E+000	10	1,0867498E-002	2,8029429E-002	0	-8,864781822646028E-001	2,5281751E+000	5,1048249E-001	2,5791979E+000	1,1415525E+001	1,0229745E+009	5,0663014E+009	5,1685478E+009	-7,8584473E+001	0,0000000E+000	0,0000000E+000	0,0000000E+000	7,8584473E+001	0,0000000E+000	0,0000000E+000	0,0000000E+000	-7,8584473E+001	0,0000000E+000	0,0000000E+000	0,0000000E+000	-1,1415525E+001	0,0000000E+000	0,0000000E+000	0,0000000E+000	1,1415525E+001	4,9525208E+000	7,8584473E+001	-7,975428194307632E-003	3,307569286288464E-002	9,0392723E-006	2,2821136E+000
1,9949391E-002	4,8664168E-001	6,6461794E-002	4,9115914E-001	-7,7769055E+000	1,585192529025924E+003	-4,5451960E-003	-1,5332637E+000	1,2003791E+008	2,1979515E+006	2,000000000000000E+000	10	1,0866922E-002	2,2125054E-002	0	-1,094599262462384E+000	2,0172739E+000	2,7550381E-001	2,0360000E+000	7,7769055E+000	2,1979523E+009	1,6093678E+010	1,6243074E+010	-8,2223091E+001	0,0000000E+000	0,0000000E+000	0,0000000E+000	8,2223091E+001	0,0000000E+000	0,0000000E+000	0,0000000E+000	-8,2223091E+001	0,0000000E+000	0,0000000E+000	0,0000000E+000	-7,7769055E+000	0,0000000E+000	0,0000000E+000	0,0000000E+000	7,7769055E+000	7,3221269E+000	8,2223091E+001	-7,659090595255291E-002	4,084097018683223E-002	6,9689841E-006	2,9643929E+000
1,2618765E+005	2,8189248E-001	-8,2514454E-003	2,8201321E-001	1,6766608E+000	2,096617585183965E+003	-4,7560763E-003	-2,7359288E+000	-1,5285275E+002	-1,3085623E-001	3,000000000000000E+000	9	3,4711873E-003	1,2308598E-002	0	-1,320562879055121E+000	3,5444150E+000	-1,0375073E-001	3,5459332E+000	-1,6766608E+000	-1,3085608E+002	4,4704155E+003	4,4723301E+003	-9,1676659E+001	0,0000000E+000	0,0000000E+000	0,0000000E+000	9,1676659E+001	0,0000000E+000	0,0000000E+000	0,0000000E+000	-9,1676659E+001	0,0000000E+000	0,0000000E+000	0,0000000E+000	1,6766608E+000	0,0000000E+000	0,0000000E+000	0,0000000E+000	-1,6766608E+000	3,4162800E+001	8,8323341E+001	-3,376824043774818E-004	4,927197653322093E-002	1,3012286E-005	1,7383772E+000
3,1686090E+004	2,8979951E-001	-5,2780216E-004	2,8979999E-001	1,0435078E-001	2,102861587427178E+003	-4,5901276E-003	-6,6230190E-001	-9,5165664E+003	-3,1566463E-002	3,000000000000000E+000	9	9,0807825E-003	3,1334653E-002	0	-1,322964198810221E+000	3,4506500E+000	-6,2845536E-003	3,4506557E+000	-1,0435078E-001	-3,1565392E+001	1,7332148E+004	1,7332178E+004	-9,0104347E+001	0,0000000E+000	0,0000000E+000	0,0000000E+000	9,0104347E+001	0,0000000E+000	0,0000000E+000	0,0000000E+000	-9,0104347E+001	0,0000000E+000	0,0000000E+000	0,0000000E+000	1,0435078E-001	0,0000000E+000	0,0000000E+000	0,0000000E+000	-1,0435078E-001	5,4906842E+002	8,9895653E+001	-9,629463355076417E-005	4,936157300189249E-002	3,0400502E-006	6,9305668E+000
7,9597607E+003	2,9127145E-001	1,8500356E-003	2,9127732E-001	-3,6391419E-001	2,105524842433748E+003	-4,5704870E-003	-5,2804589E-001	1,0807868E+004	4,3600038E-001	3,000000000000000E+000	9	1,0276198E-002	3,5279777E-002	0	-1,323396513817218E+000	3,4330852E+000	2,1805536E-002	3,4331543E+000	3,6391419E-001	4,3600076E+002	6,8644336E+004	6,8645719E+004	-8,9636086E+001	0,0000000E+000	0,0000000E+000	0,0000000E+000	8,9636086E+001	0,0000000E+000	0,0000000E+000	0,0000000E+000	-8,9636086E+001	0,0000000E+000	0,0000000E+000	0,0000000E+000	-3,6391419E-001	0,0000000E+000	0,0000000E+000	0,0000000E+000	3,6391419E-001	1,5744099E+002	8,9636086E+001	-3,671617660927495E-005	4,937770325605722E-002	2,4134270E-006	8,6554728E+000
1,9980818E+003	2,9349408E-001	2,7454924E-003	2,9350692E-001	-5,3595811E-001	2,108669045196410E+003	-4,5660106E-003	-4,7606635E-001	2,9012598E+004	2,5385773E+000	3,000000000000000E+000	9	1,0707308E-002	3,6480598E-002	0	-1,323920061007745E+000	3,4069257E+000	3,1870108E-002	3,4070747E+000	5,3595811E-001	2,5385735E+003	2,7137478E+005	2,7138666E+005	-8,9464043E+001	0,0000000E+000	0,0000000E+000	0,0000000E+000	8,9464043E+001	0,0000000E+000	0,0000000E+000	0,0000000E+000	-8,9464043E+001	0,0000000E+000	0,0000000E+000	0,0000000E+000	-5,3595811E-001	0,0000000E+000	0,0000000E+000	0,0000000E+000	5,3595811E-001	1,0690034E+002	8,9464043E+001	-8,679697631142069E-005	4,939723750565247E-002	2,1737239E-006	9,5911226E+000
5,0208865E+002	2,9638430E-001	3,7342878E-003	2,9640782E-001	-7,2185880E-001	2,111470039596112E+003	-4,5661409E-003	-4,8108158E-001	8,4885195E+004	1,3473121E+001	3,000000000000000E+000	9	1,0864608E-002	3,6654256E-002	0	-1,324247028104689E+000	3,3734624E+000	4,2503871E-002	3,3737302E+000	7,2185880E-001	1,3473053E+004	1,0693395E+006	1,0694244E+006	-8,9278145E+001	0,0000000E+000	0,0000000E+000	0,0000000E+000	8,9278145E+001	0,0000000E+000	0,0000000E+000	0,0000000E+000	-8,9278145E+001	0,0000000E+000	0,0000000E+000	0,0000000E+000	-7,2185880E-001	0,0000000E+000	0,0000000E+000	0,0000000E+000	7,2185880E-001	7,9368362E+001	8,9278145E+001	-3,615201622420017E-005	4,940943708765141E-002	2,1966862E-006	9,4914064E+000
1,2600809E+002	2,9991710E-001	4,6353401E-003	2,9995292E-001	-8,8545889E-001	2,114270270129113E+003	-4,5695542E-003	-4,7908673E-001	2,7248341E+005	6,5072433E+001	3,000000000000000E+000	9	1,0869826E-002	3,6238439E-002	0	-1,324575847753906E+000	3,3334584E+000	5,1519945E-002	3,3338566E+000	8,8545889E-001	6,5072512E+004	4,2103355E+006	4,2108385E+006	-8,9114540E+001	0,0000000E+000	0,0000000E+000	0,0000000E+000	8,9114540E+001	0,0000000E+000	0,0000000E+000	0,0000000E+000	-8,9114540E+001	0,0000000E+000	0,0000000E+000	0,0000000E+000	-8,8545889E-001	0,0000000E+000	0,0000000E+000	0,0000000E+000	8,8545889E-001	6,4702286E+001	8,9114540E+001	-3,895172784385004E-005	4,942170579086639E-002	2,1892129E-006	9,5380526E+000
3,1672298E+001	3,0466518E-001	6,4006802E-003	3,0473241E-001	-1,2035443E+000	2,117068298688653E+003	-4,5628580E-003	-4,7822908E-001	7,8508094E+005	3,4636133E+002	3,000000000000000E+000	9	1,0870426E-002	3,5672039E-002	0	-1,324878888136668E+000	3,2808435E+000	6,8926916E-002	3,2815676E+000	1,2035443E+000	3,4636144E+005	1,6486410E+007	1,6490048E+007	-8,8796455E+001	0,0000000E+000	0,0000000E+000	0,0000000E+000	8,8796455E+001	0,0000000E+000	0,0000000E+000	0,0000000E+000	-8,8796455E+001	0,0000000E+000	0,0000000E+000	0,0000000E+000	-1,2035443E+000	0,0000000E+000	0,0000000E+000	0,0000000E+000	1,2035443E+000	4,7598877E+001	8,8796455E+001	-3,700833607545029E-005	4,943301263498937E-002	2,1820913E-006	9,5411558E+000
7,9557004E+000	3,1106544E-001	8,1555545E-003	3,1117234E-001	-1,5018442E+000	2,120032247682771E+003	-4,5636417E-003	-4,6415287E-001	2,4529473E+006	1,6849741E+003	3,000000000000000E+000	9	1,0865167E-002	3,4916878E-002	0	-1,325267189692318E+000	3,2125494E+000	8,4227040E-002	3,2136533E+000	1,5018442E+000	1,6849765E+006	6,4267516E+007	6,4289600E+007	-8,8498154E+001	0,0000000E+000	0,0000000E+000	0,0000000E+000	8,8498154E+001	0,0000000E+000	0,0000000E+000	0,0000000E+000	-8,8498154E+001	0,0000000E+000	0,0000000E+000	0,0000000E+000	-1,5018442E+000	0,0000000E+000	0,0000000E+000	0,0000000E+000	1,5018442E+000	3,8141544E+001	8,8498154E+001	-4,174624130131033E-004	4,944750068810769E-002	2,1182275E-006	9,8321953E+000
1,9970603E+000	3,1647000E-001	1,1589170E-002	3,1668213E-001	-2,0972414E+000	2,124133809717627E+003	-4,5540310E-003	-3,9046705E-001	6,8766450E+006	9,2094600E+003	3,000000000000000E+000	9	1,0867243E-002	3,4315933E-002	0	-1,326034285314911E+000	3,1556253E+000	1,1555939E-001	3,1577406E+000	2,0972414E+000	9,2094730E+006	2,5148632E+008	2,5165490E+008	-8,7902756E+001	0,0000000E+000	0,0000000E+000	0,0000000E+000	8,7902756E+001	0,0000000E+000	0,0000000E+000	0,0000000E+000	-8,7902756E+001	0,0000000E+000	0,0000000E+000	0,0000000E+000	-2,0972414E+000	0,0000000E+000	0,0000000E+000	0,0000000E+000	2,0972414E+000	2,7307390E+001	8,7902756E+001	-8,603488886886890E-004	4,947612205715766E-002	1,7781990E-006	1,1663035E+001
5,0118679E-001	3,2663763E-001	2,8083164E-002	3,2784265E-001	-4,9140067E+000	2,140466175613343E+003	-4,5476058E-003	-8,8721663E-001	1,1307705E+007	8,2972781E+004	3,000000000000000E+000	10	1,0869857E-002	3,3155713E-002	0	-1,330062521856490E+000	3,0390322E+000	2,6128539E-001	3,0502439E+000	4,9140067E+000	8,2972816E+007	9,6506330E+008	9,6862362E+008	-8,5085991E+001	0,0000000E+000	0,0000000E+000	0,0000000E+000	8,5085991E+001	0,0000000E+000	0,0000000E+000	0,0000000E+000	-8,5085991E+001	0,0000000E+000	0,0000000E+000	0,0000000E+000	-4,9140067E+000	0,0000000E+000	0,0000000E+000	0,0000000E+000	4,9140067E+000	1,1631083E+001	8,5085991E+001	-2,829122673511542E-003	4,962642097854560E-002	4,0347113E-006	5,1256995E+000
1,2590654E-001	3,6088490E-001	6,1179563E-002	3,6603394E-001	-9,6216774E+000	2,201429540962243E+003	-4,5438409E-003	-9,0744859E-001	2,0661672E+007	5,7721219E+005	3,000000000000000E+000	10	1,0867516E-002	2,9689912E-002	0	-1,334884017134305E+000	2,6935558E+000	4,5662916E-001	2,7319870E+000	9,6216774E+000	5,7721197E+008	3,4048489E+009	3,4534287E+009	-8,0378326E+001	0,0000000E+000	0,0000000E+000	0,0000000E+000	8,0378326E+001	0,0000000E+000	0,0000000E+000	0,0000000E+000	-8,0378326E+001	0,0000000E+000	0,0000000E+000	0,0000000E+000	-9,6216774E+000	0,0000000E+000	0,0000000E+000	0,0000000E+000	9,6216774E+000	5,8987818E+000	8,0378326E+001	1,081367953515766E-003	4,980631744993024E-002	4,1233020E-006	5,0072708E+000
3,1592205E-002	4,5718494E-001	8,7673917E-002	4,6551561E-001	-1,0855762E+001	2,443618089158961E+003	-4,5452346E-003	-7,7509475E-001	5,7460548E+007	2,0381780E+006	3,000000000000000E+000	10	1,0868780E-002	2,3347832E-002	0	-1,429820803141349E+000	2,1097131E+000	4,0457767E-001	2,1481557E+000	1,0855762E+001	2,0381774E+009	1,0628296E+010	1,0821961E+010	-7,9144241E+001	0,0000000E+000	0,0000000E+000	0,0000000E+000	7,9144241E+001	0,0000000E+000	0,0000000E+000	0,0000000E+000	-7,9144241E+001	0,0000000E+000	0,0000000E+000	0,0000000E+000	-1,0855762E+001	0,0000000E+000	0,0000000E+000	0,0000000E+000	1,0855762E+001	5,2146063E+000	7,9144241E+001	-1,396507842790418E-002	5,334853657971937E-002	3,5229875E-006	5,8641019E+000
1,9999814E+005	2,6425385E-001	-1,8204642E-002	2,6488018E-001	3,9409218E+000	3,143181624039746E+003	-4,7650477E-003	3,8122249E-001	-4,3713142E+001	-2,0647971E-001	4,000000000000000E+000	9	1,0048440E-003	3,7935795E-003	0	-1,445856741518021E+000	3,7663651E+000	-2,5946766E-001	3,7752919E+000	-3,9409218E+000	-2,0647952E+002	2,9972061E+003	3,0043098E+003	-9,3940918E+001	0,0000000E+000	0,0000000E+000	0,0000000E+000	9,3940918E+001	0,0000000E+000	0,0000000E+000	0,0000000E+000	-9,3940918E+001	0,0000000E+000	0,0000000E+000	0,0000000E+000	3,9409218E+000	0,0000000E+000	0,0000000E+000	0,0000000E+000	-3,9409218E+000	1,4515739E+001	8,6059082E+001	2,044995346268674E-004	5,394685900110145E-002	-1,8165433E-006	1,2499388E+001
5,0224539E+004	2,9029021E-001	-1,6582506E-003	2,9029495E-001	3,2729220E-001	3,149426639456389E+003	-4,6248022E-003	-1,7369768E-001	-1,9109707E+003	-6,2355585E-002	4,000000000000000E+000	9	9,1741895E-003	3,1602994E-002	0	-1,445953338536220E+000	3,4447160E+000	-1,9677557E-002	3,4447722E+000	-3,2729220E-001	-6,2355820E+001	1,0915853E+004	1,0916030E+004	-9,0327293E+001	0,0000000E+000	0,0000000E+000	0,0000000E+000	9,0327293E+001	0,0000000E+000	0,0000000E+000	0,0000000E+000	-9,0327293E+001	0,0000000E+000	0,0000000E+000	0,0000000E+000	3,2729220E-001	0,0000000E+000	0,0000000E+000	0,0000000E+000	-3,2729220E-001	1,7505811E+002	8,9672707E+001	-8,982497416942792E-005	5,395046316572653E-002	8,0331739E-007	2,6625584E+001
1,2618766E+004	2,9209080E-001	1,2684112E-003	2,9209355E-001	-2,4880672E-001	3,152312639886775E+003	-4,5726877E-003	-1,6855176E-001	9,9435908E+003	1,8750784E-001	4,000000000000000E+000	9	1,0381398E-002	3,5541344E-002	0	-1,445946993640900E+000	3,4235287E+000	1,4866753E-002	3,4235609E+000	2,4880672E-001	1,8751016E+002	4,3179461E+004	4,3179867E+004	-8,9751190E+001	0,0000000E+000	0,0000000E+000	0,0000000E+000	8,9751190E+001	0,0000000E+000	0,0000000E+000	0,0000000E+000	-8,9751190E+001	0,0000000E+000	0,0000000E+000	0,0000000E+000	-2,4880672E-001	0,0000000E+000	0,0000000E+000	0,0000000E+000	2,4880672E-001	2,3028085E+002	8,9751190E+001	-3,884823317656938E-005	5,395022642915134E-002	7,7073457E-007	2,7129278E+001
3,1669595E+003	2,9413858E-001	2,5766338E-003	2,9414988E-001	-5,0189424E-001	3,155447087102366E+003	-4,5667379E-003	-1,7983143E-001	1,9504055E+004	1,4965560E+000	4,000000000000000E+000	9	1,0461564E-002	3,5565421E-002	0	-1,446026458675101E+000	3,3994970E+000	2,9779360E-002	3,3996274E+000	5,0189424E-001	1,4965496E+003	1,7084108E+005	1,7084763E+005	-8,9498108E+001	0,0000000E+000	0,0000000E+000	0,0000000E+000	8,9498108E+001	0,0000000E+000	0,0000000E+000	0,0000000E+000	-8,9498108E+001	0,0000000E+000	0,0000000E+000	0,0000000E+000	-5,0189424E-001	0,0000000E+000	0,0000000E+000	0,0000000E+000	5,0189424E-001	1,1415614E+002	8,9498108E+001	-5,257380051260085E-005	5,395319137641928E-002	8,2124302E-007	2,5394548E+001
7,9525409E+002	2,9657587E-001	3,2800066E-003	2,9659402E-001	-6,3364178E-001	3,158248851342119E+003	-4,5626159E-003	-2,0302451E-001	6,1015406E+004	7,4621525E+000	4,000000000000000E+000	9	1,0846839E-002	3,6571335E-002	0	-1,446144562594796E+000	3,3714058E+000	3,7286352E-002	3,3716121E+000	6,3364178E-001	7,4621802E+003	6,7472263E+005	6,7476388E+005	-8,9366356E+001	0,0000000E+000	0,0000000E+000	0,0000000E+000	8,9366356E+001	0,0000000E+000	0,0000000E+000	0,0000000E+000	-8,9366356E+001	0,0000000E+000	0,0000000E+000	0,0000000E+000	-6,3364178E-001	0,0000000E+000	0,0000000E+000	0,0000000E+000	6,3364178E-001	9,0419289E+001	8,9366356E+001	-2,042009742231343E-005	5,395759799245550E-002	9,2632285E-007	2,2473227E+001
1,9980818E+002	3,0007720E-001	4,2748321E-003	3,0010766E-001	-8,1616747E-001	3,161048112941731E+003	-4,5691626E-003	-2,1216007E-001	1,8633214E+005	3,7806961E+001	4,000000000000000E+000	9	1,0874041E-002	3,6233801E-002	0	-1,446299905165699E+000	3,3317995E+000	4,7464062E-002	3,3321376E+000	8,1616747E-001	3,7807066E+004	2,6539073E+006	2,6541765E+006	-8,9183830E+001	0,0000000E+000	0,0000000E+000	0,0000000E+000	8,9183830E+001	0,0000000E+000	0,0000000E+000	0,0000000E+000	-8,9183830E+001	0,0000000E+000	0,0000000E+000	0,0000000E+000	-8,1616747E-001	0,0000000E+000	0,0000000E+000	0,0000000E+000	8,1616747E-001	7,0196251E+001	8,9183830E+001	-2,731851207471436E-007	5,396339403263619E-002	9,6939380E-007	2,1536394E+001
5,0208866E+001	3,0403233E-001	5,6933155E-003	3,0408564E-001	-1,0727965E+000	3,163865054675523E+003	-4,5665139E-003	-2,0828213E-001	5,5676825E+005	1,9517003E+002	4,000000000000000E+000	9	1,0863301E-002	3,5724480E-002	0	-1,446511205864444E+000	3,2879708E+000	6,1570603E-002	3,2885473E+000	1,0727965E+000	1,9517063E+005	1,0422399E+007	1,0424226E+007	-8,8927200E+001	0,0000000E+000	0,0000000E+000	0,0000000E+000	8,8927200E+001	0,0000000E+000	0,0000000E+000	0,0000000E+000	-8,8927200E+001	0,0000000E+000	0,0000000E+000	0,0000000E+000	-1,0727965E+000	0,0000000E+000	0,0000000E+000	0,0000000E+000	1,0727965E+000	5,3401630E+001	8,8927200E+001	-4,374622996650146E-005	5,397127794580320E-002	9,5112324E-007	2,1924656E+001
1,2600809E+001	3,1021735E-001	7,6332567E-003	3,1031126E-001	-1,4095445E+000	3,166703001716989E+003	-4,5583164E-003	-1,7994323E-001	1,6546716E+006	1,0012361E+003	4,000000000000000E+000	9	1,0865926E-002	3,5016216E-002	0	-1,446834922082868E+000	3,2215958E+000	7,9271086E-002	3,2225709E+000	1,4095445E+000	1,0012372E+006	4,0690476E+007	4,0702792E+007	-8,8590454E+001	0,0000000E+000	0,0000000E+000	0,0000000E+000	8,8590454E+001	0,0000000E+000	0,0000000E+000	0,0000000E+000	-8,8590454E+001	0,0000000E+000	0,0000000E+000	0,0000000E+000	-1,4095445E+000	0,0000000E+000	0,0000000E+000	0,0000000E+000	1,4095445E+000	4,0640236E+001	8,8590454E+001	-1,262303360898276E-004	5,398335623315366E-002	8,2023820E-007	2,5331968E+001
3,1655185E+000	3,1637338E-001	9,1996193E-003	3,1650710E-001	-1,6655980E+000	3,169873906000939E+003	-4,5593050E-003	-1,4809929E-001	5,4651920E+006	4,6171948E+003	4,000000000000000E+000	9	1,0866222E-002	3,4331683E-002	0	-1,447496235554033E+000	3,1581519E+000	9,1833882E-002	3,1594868E+000	1,6655980E+000	4,6171895E+006	1,5878456E+008	1,5885168E+008	-8,8334404E+001	0,0000000E+000	0,0000000E+000	0,0000000E+000	8,8334404E+001	0,0000000E+000	0,0000000E+000	0,0000000E+000	-8,8334404E+001	0,0000000E+000	0,0000000E+000	0,0000000E+000	-1,6655980E+000	0,0000000E+000	0,0000000E+000	0,0000000E+000	1,6655980E+000	3,4389835E+001	8,8334404E+001	-5,859469121098915E-004	5,400803072790825E-002	6,7522984E-007	3,0785461E+001
7,9443753E-001	3,2335451E-001	2,0368440E-002	3,2399538E-001	-3,6043591E+000	3,180583313789597E+003	-4,5494419E-003	-7,1385926E-001	9,8356400E+006	3,8872324E+004	4,000000000000000E+000	10	1,0869432E-002	3,3548109E-002	0	-1,449932111676089E+000	3,0803585E+000	1,9403502E-001	3,0864637E+000	3,6043591E+000	3,8872360E+007	6,1710867E+008	6,1833178E+008	-8,6395638E+001	0,0000000E+000	0,0000000E+000	0,0000000E+000	8,6395638E+001	0,0000000E+000	0,0000000E+000	0,0000000E+000	-8,6395638E+001	0,0000000E+000	0,0000000E+000	0,0000000E+000	-3,6043591E+000	0,0000000E+000	0,0000000E+000	0,0000000E+000	3,6043591E+000	1,5875271E+001	8,6395638E+001	-1,175862091181923E-003	5,409891654109242E-002	3,2476612E-006	6,3730235E+000
1,9980818E-001	3,4628105E-001	4,8904553E-002	3,4971735E-001	-8,0386009E+000	3,219120511833316E+003	-4,5467354E-003	-6,1833382E-001	1,6287619E+007	3,1850909E+005	4,000000000000000E+000	10	1,0865943E-002	3,1070642E-002	0	-1,454572489141703E+000	2,8313553E+000	3,9986640E-001	2,8594520E+000	8,0386009E+000	3,1850925E+008	2,2552840E+009	2,2776643E+009	-8,1961395E+001	0,0000000E+000	0,0000000E+000	0,0000000E+000	8,1961395E+001	0,0000000E+000	0,0000000E+000	0,0000000E+000	-8,1961395E+001	0,0000000E+000	0,0000000E+000	0,0000000E+000	-8,0386009E+000	0,0000000E+000	0,0000000E+000	0,0000000E+000	8,0386009E+000	7,0807528E+000	8,1961395E+001	-5,330149970984355E-003	5,427205526338834E-002	2,8114002E-006	7,3532052E+000
5,0154075E-002	4,1605607E-001	8,9641057E-002	4,2560330E-001	-1,2158756E+001	3,371934957651654E+003	-4,5461757E-003	-5,8392167E-001	3,5400300E+007	1,5704023E+006	4,000000000000000E+000	10	1,0866704E-002	2,5532473E-002	0	-1,462075289852036E+000	2,2968988E+000	4,9487671E-001	2,3496058E+000	1,2158756E+001	1,5704018E+009	7,2887956E+009	7,4560517E+009	-7,7841248E+001	0,0000000E+000	0,0000000E+000	0,0000000E+000	7,7841248E+001	0,0000000E+000	0,0000000E+000	0,0000000E+000	-7,7841248E+001	0,0000000E+000	0,0000000E+000	0,0000000E+000	-1,2158756E+001	0,0000000E+000	0,0000000E+000	0,0000000E+000	1,2158756E+001	4,6413560E+000	7,7841248E+001	7,810420007725583E-003	5,455199484551373E-002	2,6546106E-006	7,7855916E+000
1,2576789E-002	5,0459272E-001	4,7322404E-002	5,0680691E-001	-5,3577199E+000	3,980036606774869E+003	-4,5494684E-003	-3,7636760E-001	2,6741363E+008	2,3314823E+006	4,000000000000000E+000	10	1,0866605E-002	2,1441313E-002	0	-1,636213051098780E+000	1,9645177E+000	1,8423907E-001	1,9731381E+000	5,3577199E+000	2,3314819E+009	2,4860295E+010	2,4969384E+010	-8,4642281E+001	0,0000000E+000	0,0000000E+000	0,0000000E+000	8,4642281E+001	0,0000000E+000	0,0000000E+000	0,0000000E+000	-8,4642281E+001	0,0000000E+000	0,0000000E+000	0,0000000E+000	-5,3577199E+000	0,0000000E+000	0,0000000E+000	0,0000000E+000	5,3577199E+000	1,0662871E+001	8,4642281E+001	-4,444883494978980E-002	6,104930884833985E-002	1,7122725E-006	1,2087832E+001
7,9609563E+004	2,8993234E-001	-3,1598557E-003	2,8994957E-001	6,2441885E-001	4,193749697005696E+003	-4,7828229E-003	-6,4593118E-001	-6,3268512E+002	-7,5141042E-002	5,000000000000000E+000	9	2,3331726E-002	8,0468222E-002	0	-1,657014243480830E+000	3,4486709E+000	-3,7585672E-002	3,4488757E+000	-6,2441885E-001	-7,5141197E+001	6,8945610E+003	6,8949707E+003	-9,0624420E+001	0,0000000E+000	0,0000000E+000	0,0000000E+000	9,0624420E+001	0,0000000E+000	0,0000000E+000	0,0000000E+000	-9,0624420E+001	0,0000000E+000	0,0000000E+000	0,0000000E+000	6,2441885E-001	0,0000000E+000	0,0000000E+000	0,0000000E+000	-6,2441885E-001	9,1754929E+001	8,9375580E+001	-3,546041901707486E-004	6,182542930361471E-002	3,0893746E-006	7,4045396E+000
1,9995176E+004	2,9282629E-001	6,5800967E-004	2,9282704E-001	-1,2874907E-001	4,199016697549232E+003	-4,5861732E-003	2,0981012E-001	1,2096581E+004	6,1080813E-002	5,000000000000000E+000	9	1,0110200E-002	3,4526184E-002	0	-1,656985559822559E+000	3,4149766E+000	7,6737902E-003	3,4149852E+000	1,2874907E-001	6,1079372E+001	2,7182076E+004	2,7182145E+004	-8,9871254E+001	0,0000000E+000	0,0000000E+000	0,0000000E+000	8,9871254E+001	0,0000000E+000	0,0000000E+000	0,0000000E+000	-8,9871254E+001	0,0000000E+000	0,0000000E+000	0,0000000E+000	-1,2874907E-001	0,0000000E+000	0,0000000E+000	0,0000000E+000	1,2874907E-001	4,4501822E+002	8,9871254E+001	-2,396506263813158E-005	6,182435907775905E-002	-9,6222561E-007	2,1858685E+001
5,0216069E+003	2,9450023E-001	2,2491380E-003	2,9450881E-001	-4,3756711E-001	4,201860910217700E+003	-4,5723896E-003	2,9643047E-001	1,4091633E+004	8,2185823E-001	5,000000000000000E+000	9	1,0728358E-002	3,6427971E-002	0	-1,656694218446682E+000	3,3953853E+000	2,5931016E-002	3,3954842E+000	4,3756711E-001	8,2186121E+002	1,0761342E+005	1,0761656E+005	-8,9562431E+001	0,0000000E+000	0,0000000E+000	0,0000000E+000	8,9562431E+001	0,0000000E+000	0,0000000E+000	0,0000000E+000	-8,9562431E+001	0,0000000E+000	0,0000000E+000	0,0000000E+000	-4,3756711E-001	0,0000000E+000	0,0000000E+000	0,0000000E+000	4,3756711E-001	1,3093916E+002	8,9562431E+001	5,630414771040648E-005	6,181348873931242E-002	-1,3553956E-006	1,5424830E+001
1,2604036E+003	2,9689696E-001	3,1199083E-003	2,9691336E-001	-6,0206407E-001	4,204885892068050E+003	-4,5770709E-003	2,7957621E-001	4,0473309E+004	4,4688201E+000	5,000000000000000E+000	9	1,0812635E-002	3,6416803E-002	0	-1,656503343713053E+000	3,3678000E+000	3,5390146E-002	3,3679860E+000	6,0206407E-001	4,4688345E+003	4,2526222E+005	4,2528569E+005	-8,9397934E+001	0,0000000E+000	0,0000000E+000	0,0000000E+000	8,9397934E+001	0,0000000E+000	0,0000000E+000	0,0000000E+000	-8,9397934E+001	0,0000000E+000	0,0000000E+000	0,0000000E+000	-6,0206407E-001	0,0000000E+000	0,0000000E+000	0,0000000E+000	6,0206407E-001	9,5162079E+001	8,9397934E+001	4,821377179098363E-005	6,180636694636690E-002	-1,2796402E-006	1,6371460E+001
3,1672299E+002	2,9997730E-001	4,0568262E-003	3,0000472E-001	-7,7480811E-001	4,207686847267760E+003	-4,5732660E-003	2,8000507E-001	1,2386657E+005	2,2650133E+001	5,000000000000000E+000	9	1,0870093E-002	3,6233071E-002	0	-1,656247977517936E+000	3,3329761E+000	4,5074426E-002	3,3332808E+000	7,7480811E-001	2,2650211E+004	1,6748378E+006	1,6749909E+006	-8,9225189E+001	0,0000000E+000	0,0000000E+000	0,0000000E+000	8,9225189E+001	0,0000000E+000	0,0000000E+000	0,0000000E+000	-8,9225189E+001	0,0000000E+000	0,0000000E+000	0,0000000E+000	-7,7480811E-001	0,0000000E+000	0,0000000E+000	0,0000000E+000	7,7480811E-001	7,3943840E+001	8,9225189E+001	4,190666523573583E-005	6,179683889028360E-002	-1,2805376E-006	1,6332798E+001
7,9516548E+001	3,0373332E-001	5,3082285E-003	3,0377969E-001	-1,0012341E+000	4,210492167454300E+003	-4,5791976E-003	2,8433046E-001	3,7706219E+005	1,1513165E+002	5,000000000000000E+000	9	1,0865829E-002	3,5768781E-002	0	-1,656098863485217E+000	3,2913568E+000	5,7521757E-002	3,2918594E+000	1,0012341E+000	1,1513188E+005	6,5877570E+006	6,5887630E+006	-8,8998764E+001	0,0000000E+000	0,0000000E+000	0,0000000E+000	8,8998764E+001	0,0000000E+000	0,0000000E+000	0,0000000E+000	-8,8998764E+001	0,0000000E+000	0,0000000E+000	0,0000000E+000	-1,0012341E+000	0,0000000E+000	0,0000000E+000	0,0000000E+000	1,0012341E+000	5,7219337E+001	8,8998764E+001	3,085326732188420E-005	6,179127524523691E-002	-1,3020053E-006	1,6105196E+001
1,9980818E+001	3,0912039E-001	7,1283896E-003	3,0920258E-001	-1,3210200E+000	4,213286128093692E+003	-4,5776493E-003	2,8015411E-001	1,1174174E+006	5,9389825E+002	5,000000000000000E+000	9	1,0867069E-002	3,5145465E-002	0	-1,655903356094201E+000	3,2332661E+000	7,4559875E-002	3,2341256E+000	1,3210200E+000	5,9389919E+005	2,5754216E+007	2,5761062E+007	-8,8678978E+001	0,0000000E+000	0,0000000E+000	0,0000000E+000	8,8678978E+001	0,0000000E+000	0,0000000E+000	0,0000000E+000	-8,8678978E+001	0,0000000E+000	0,0000000E+000	0,0000000E+000	-1,3210200E+000	0,0000000E+000	0,0000000E+000	0,0000000E+000	1,3210200E+000	4,3364689E+001	8,8678978E+001	7,897206914520005E-005	6,178398060161563E-002	-1,2824472E-006	1,6339754E+001
5,0144420E+000	3,1568384E-001	8,4695388E-003	3,1579745E-001	-1,5368302E+000	4,216166373323795E+003	-4,5754858E-003	2,7959475E-001	3,7474668E+006	2,6955044E+003	5,000000000000000E+000	9	1,0863991E-002	3,4401767E-002	0	-1,655692418173575E+000	3,1654475E+000	8,4926367E-002	3,1665866E+000	1,5368302E+000	2,6954995E+006	1,0046914E+008	1,0050530E+008	-8,8463173E+001	0,0000000E+000	0,0000000E+000	0,0000000E+000	8,8463173E+001	0,0000000E+000	0,0000000E+000	0,0000000E+000	-8,8463173E+001	0,0000000E+000	0,0000000E+000	0,0000000E+000	-1,5368302E+000	0,0000000E+000	0,0000000E+000	0,0000000E+000	1,5368302E+000	3,7272850E+001	8,8463173E+001	3,958732164268675E-004	6,177611022418800E-002	-1,2792818E-006	1,6364706E+001
1,2596742E+000	3,2115436E-001	1,5077501E-002	3,2150808E-001	-2,6879389E+000	4,223337122864410E+003	-4,5546484E-003	-1,2852064E-001	8,3797785E+006	1,8429242E+004	5,000000000000000E+000	10	1,0867948E-002	3,3803031E-002	0	-1,654619863499648E+000	3,1069198E+000	1,4586315E-001	3,1103418E+000	2,6879389E+000	1,8429266E+007	3,9254723E+008	3,9297962E+008	-8,7312057E+001	0,0000000E+000	0,0000000E+000	0,0000000E+000	8,7312057E+001	0,0000000E+000	0,0000000E+000	0,0000000E+000	-8,7312057E+001	0,0000000E+000	0,0000000E+000	0,0000000E+000	-2,6879389E+000	0,0000000E+000	0,0000000E+000	0,0000000E+000	2,6879389E+000	2,1300238E+001	8,7312057E+001	-6,404427205852770E-005	6,173609176723870E-002	5,8536631E-007	3,5439045E+001
3,1619310E-001	3,3688411E-001	3,6947060E-002	3,3890411E-001	-6,2587805E+000	4,247740960183539E+003	-4,5505050E-003	-1,3218875E-001	1,3623474E+007	1,6191756E+005	5,000000000000000E+000	10	1,0869037E-002	3,2071128E-002	0	-1,652322983529649E+000	2,9331000E+000	3,2168159E-001	2,9506872E+000	6,2587805E+000	1,6191758E+008	1,4763680E+009	1,4852205E+009	-8,3741219E+001	0,0000000E+000	0,0000000E+000	0,0000000E+000	8,3741219E+001	0,0000000E+000	0,0000000E+000	0,0000000E+000	-8,3741219E+001	0,0000000E+000	0,0000000E+000	0,0000000E+000	-6,2587805E+000	0,0000000E+000	0,0000000E+000	0,0000000E+000	6,2587805E+000	9,1180220E+000	8,3741219E+001	2,395256262487822E-003	6,165039208737007E-002	6,0152558E-007	3,4424297E+001
7,9421178E-002	3,8468957E-001	7,6827012E-002	3,9228618E-001	-1,1294049E+001	4,344229526473122E+003	-4,5490521E-003	-1,4011222E-001	2,6083740E+007	1,0004416E+006	5,000000000000000E+000	10	1,0867683E-002	2,7703457E-002	0	-1,673531568283793E+000	2,4997947E+000	4,9923831E-001	2,5491593E+000	1,1294049E+001	1,0004419E+009	5,0094285E+009	5,1083520E+009	-7,8705948E+001	0,0000000E+000	0,0000000E+000	0,0000000E+000	7,8705948E+001	0,0000000E+000	0,0000000E+000	0,0000000E+000	-7,8705948E+001	0,0000000E+000	0,0000000E+000	0,0000000E+000	-1,1294049E+001	0,0000000E+000	0,0000000E+000	0,0000000E+000	1,1294049E+001	5,0072174E+000	7,8705948E+001	-9,601863912278574E-004	6,244171289979266E-002	6,3737781E-007	3,2467205E+001
1,9949391E-002	4,9134555E-001	6,7750633E-002	4,9599457E-001	-7,8508911E+000	4,727910448457027E+003	-4,5507140E-003	-7,8876175E-002	1,1775439E+008	2,1971010E+006	5,000000000000000E+000	10	1,0868696E-002	2,1912932E-002	0	-1,664997960568527E+000	1,9972537E+000	2,7539721E-001	2,0161512E+000	7,8508911E+000	2,1971011E+009	1,5933959E+010	1,6084723E+010	-8,2149109E+001	0,0000000E+000	0,0000000E+000	0,0000000E+000	8,2149109E+001	0,0000000E+000	0,0000000E+000	0,0000000E+000	-8,2149109E+001	0,0000000E+000	0,0000000E+000	0,0000000E+000	-7,8508911E+000	0,0000000E+000	0,0000000E+000	0,0000000E+000	7,8508911E+000	7,2522650E+000	8,2149109E+001	-2,426623021052277E-002	6,212331252237850E-002	3,5894291E-007	5,7694405E+001
1,2618765E+005	2,8445563E-001	-5,7819220E-003	2,8451440E-001	1,1644491E+000	5,239335737655027E+003	-4,7635185E-003	1,8378435E+000	-2,1813786E+002	-9,0088017E-002	6,000000000000000E+000	9	3,2462459E-003	1,1409777E-002	0	-1,776727283790800E+000	3,5140350E+000	-7,1427219E-002	3,5147607E+000	-1,1644491E+000	-9,0088219E+001	4,4320981E+003	4,4330137E+003	-9,1164452E+001	0,0000000E+000	0,0000000E+000	0,0000000E+000	9,1164452E+001	0,0000000E+000	0,0000000E+000	0,0000000E+000	-9,1164452E+001	0,0000000E+000	0,0000000E+000	0,0000000E+000	1,1644491E+000	0,0000000E+000	0,0000000E+000	0,0000000E+000	-1,1644491E+000	4,9197418E+001	8,8835548E+001	2,238240919179013E-004	6,629208379347426E-002	-8,7546014E-006	2,5919063E+000
3,1686090E+004	2,9324487E-001	-2,8585916E-004	2,9324502E-001	5,5852696E-002	5,245859729244927E+003	-4,6006846E-003	5,6647027E-001	-1,7571117E+004	-1,6697148E-002	6,000000000000000E+000	9	9,0438696E-003	3,0840658E-002	0	-1,775237340362612E+000	3,4101160E+000	-3,3242281E-003	3,4101176E+000	-5,5852696E-002	-1,6697775E+001	1,7128551E+004	1,7128559E+004	-9,0055855E+001	0,0000000E+000	0,0000000E+000	0,0000000E+000	9,0055855E+001	0,0000000E+000	0,0000000E+000	0,0000000E+000	-9,0055855E+001	0,0000000E+000	0,0000000E+000	0,0000000E+000	5,5852696E-002	0,0000000E+000	0,0000000E+000	0,0000000E+000	-5,5852696E-002	1,0258369E+003	8,9944145E+001	9,577074249578210E-005	6,623649200091830E-002	-2,6061509E-006	8,1216698E+000
7,9597607E+003	2,9481849E-001	1,9957803E-003	2,9482526E-001	-3,8785914E-001	5,248520984944713E+003	-4,5728185E-003	5,4189777E-001	1,0018608E+004	4,5909595E-001	6,000000000000000E+000	9	1,0351706E-002	3,5111327E-002	0	-1,774815843740437E+000	3,3917620E+000	2,2960609E-002	3,3918397E+000	3,8785914E-001	4,5909174E+002	6,7818078E+004	6,7819633E+004	-8,9612144E+001	0,0000000E+000	0,0000000E+000	0,0000000E+000	8,9612144E+001	0,0000000E+000	0,0000000E+000	0,0000000E+000	-8,9612144E+001	0,0000000E+000	0,0000000E+000	0,0000000E+000	-3,8785914E-001	0,0000000E+000	0,0000000E+000	0,0000000E+000	3,8785914E-001	1,4772092E+002	8,9612144E+001	6,119095181444933E-005	6,622076539523671E-002	-2,4780002E-006	8,4385262E+000
1,9980818E+003	2,9702350E-001	2,8532215E-003	2,9703721E-001	-5,5036896E-001	5,251665195840702E+003	-4,5721470E-003	5,4094690E-001	2,7917168E+004	2,5758502E+000	6,000000000000000E+000	9	1,0593262E-002	3,5663079E-002	0	-1,774269351030745E+000	3,3664262E+000	3,2338046E-002	3,3665814E+000	5,5036896E-001	2,5758518E+003	2,6814888E+005	2,6816125E+005	-8,9449631E+001	0,0000000E+000	0,0000000E+000	0,0000000E+000	8,9449631E+001	0,0000000E+000	0,0000000E+000	0,0000000E+000	-8,9449631E+001	0,0000000E+000	0,0000000E+000	0,0000000E+000	-5,5036896E-001	0,0000000E+000	0,0000000E+000	0,0000000E+000	5,5036896E-001	1,0410110E+002	8,9449631E+001	9,718071624642555E-005	6,620037501747086E-002	-2,4732888E-006	8,4521179E+000
5,0208865E+002	2,9993570E-001	3,6348291E-003	2,9995772E-001	-6,9431603E-001	5,254465149733704E+003	-4,5767543E-003	5,6689942E-001	8,7207883E+004	1,2805709E+001	6,000000000000000E+000	9	1,0739582E-002	3,5803650E-002	0	-1,773880823652970E+000	3,3335583E+000	4,0398374E-002	3,3338032E+000	6,9431603E-001	1,2805654E+004	1,0566905E+006	1,0567681E+006	-8,9305687E+001	0,0000000E+000	0,0000000E+000	0,0000000E+000	8,9305687E+001	0,0000000E+000	0,0000000E+000	0,0000000E+000	-8,9305687E+001	0,0000000E+000	0,0000000E+000	0,0000000E+000	-6,9431603E-001	0,0000000E+000	0,0000000E+000	0,0000000E+000	6,9431603E-001	8,2517143E+001	8,9305687E+001	6,768278611368750E-005	6,618587853862543E-002	-2,5945594E-006	8,0733089E+000
1,2600809E+002	3,0341527E-001	4,8530195E-003	3,0345407E-001	-9,1634756E-001	5,257265379840013E+003	-4,5773508E-003	5,7232475E-001	2,6026134E+005	6,6565277E+001	6,000000000000000E+000	9	1,0742144E-002	3,5399571E-002	0	-1,773432077531218E+000	3,2949700E+000	5,2701879E-002	3,2953916E+000	9,1634756E-001	6,6565555E+004	4,1617230E+006	4,1622553E+006	-8,9083649E+001	0,0000000E+000	0,0000000E+000	0,0000000E+000	8,9083649E+001	0,0000000E+000	0,0000000E+000	0,0000000E+000	-8,9083649E+001	0,0000000E+000	0,0000000E+000	0,0000000E+000	-9,1634756E-001	0,0000000E+000	0,0000000E+000	0,0000000E+000	9,1634756E-001	6,2520924E+001	8,9083649E+001	4,882364634339886E-005	6,616913521747732E-002	-2,6197313E-006	7,9978209E+000
3,1672298E+001	3,0818716E-001	6,2593929E-003	3,0825073E-001	-1,1635381E+000	5,260061446852837E+003	-4,5805220E-003	5,5647725E-001	8,0280181E+005	3,3102786E+002	6,000000000000000E+000	9	1,0740448E-002	3,4843221E-002	0	-1,773048455770349E+000	3,2434435E+000	6,5875515E-002	3,2441125E+000	1,1635381E+000	3,3102731E+005	1,6298472E+007	1,6301833E+007	-8,8836464E+001	0,0000000E+000	0,0000000E+000	0,0000000E+000	8,8836464E+001	0,0000000E+000	0,0000000E+000	0,0000000E+000	-8,8836464E+001	0,0000000E+000	0,0000000E+000	0,0000000E+000	-1,1635381E+000	0,0000000E+000	0,0000000E+000	0,0000000E+000	1,1635381E+000	4,9235950E+001	8,8836464E+001	5,229552876939714E-005	6,615482177379432E-002	-2,5489562E-006	8,2312832E+000
7,9557004E+000	3,1459633E-001	8,1286943E-003	3,1470132E-001	-1,4801071E+000	5,263026439820329E+003	-4,5734621E-003	6,2469578E-001	2,4610528E+006	1,6419706E+003	6,000000000000000E+000	9	1,0740060E-002	3,4127790E-002	0	-1,772680143893285E+000	3,1765559E+000	8,2077406E-002	3,1776161E+000	1,4801071E+000	1,6419740E+006	6,3547468E+007	6,3568676E+007	-8,8519890E+001	0,0000000E+000	0,0000000E+000	0,0000000E+000	8,8519890E+001	0,0000000E+000	0,0000000E+000	0,0000000E+000	-8,8519890E+001	0,0000000E+000	0,0000000E+000	0,0000000E+000	-1,4801071E+000	0,0000000E+000	0,0000000E+000	0,0000000E+000	1,4801071E+000	3,8701950E+001	8,8519890E+001	2,738471412295773E-004	6,614107956246049E-002	-2,8570225E-006	7,3211031E+000
2,5136747E+000	3,1935534E-001	1,0383990E-002	3,1952411E-001	-1,8623433E+000	5,266034967029933E+003	-4,5616454E-003	5,7945991E-001	6,0974295E+006	6,4397354E+003	6,000000000000000E+000	9	1,0742093E-002	3,3619035E-002	0	-1,772178192882703E+000	3,1280012E+000	1,0170845E-001	3,1296544E+000	1,8623433E+000	6,4397345E+006	1,9805142E+008	1,9815610E+008	-8,8137657E+001	0,0000000E+000	0,0000000E+000	0,0000000E+000	8,8137657E+001	0,0000000E+000	0,0000000E+000	0,0000000E+000	-8,8137657E+001	0,0000000E+000	0,0000000E+000	0,0000000E+000	-1,8623433E+000	0,0000000E+000	0,0000000E+000	0,0000000E+000	1,8623433E+000	3,0754589E+001	8,8137657E+001	6,354155044621113E-004	6,612235109537538E-002	-2,6432906E-006	7,8722367E+000