File: data/phase_2a/Sergey/1/3.3/01 eis/SN50_C5D1E2_lr_0,1MFeCN6_in_1M_KCl_3306mL_symmetric_balanced_4_point_PEIS_10mHz_200kHz_10mV_C16.txt
time/s	freq/Hz	Re(Z)/Ohm	-Im(Z)/Ohm
26/08/2025 22:00:02.1095	1,9999814E+005	3,0942431E-001	-1,0003540E-001
26/08/2025 22:00:02.5435	1,5885727E+005	3,2161933E-001	-7,5364128E-002
26/08/2025 22:00:02.9775	1,2618765E+005	3,2897294E-001	-5,8606889E-002
26/08/2025 22:00:03.2715	1,0022640E+005	3,3203509E-001	-4,5724057E-002
26/08/2025 22:00:04.9655	7,9609563E+004	3,3325231E-001	-3,5591692E-002
26/08/2025 22:00:06.6595	6,3233004E+004	3,3411708E-001	-2,8001118E-002
26/08/2025 22:00:07.9335	5,0224539E+004	3,3442461E-001	-2,2150822E-002
26/08/2025 22:00:08.6475	3,9897566E+004	3,3502609E-001	-1,6891094E-002
26/08/2025 22:00:09.2215	3,1686090E+004	3,3519974E-001	-1,2743161E-002
26/08/2025 22:00:09.6555	2,5172580E+004	3,3558792E-001	-9,5781963E-003
26/08/2025 22:00:10.0895	1,9995176E+004	3,3632272E-001	-6,7726481E-003
26/08/2025 22:00:10.5245	1,5884798E+004	3,3664721E-001	-4,5006718E-003
26/08/2025 22:00:10.9585	1,2618766E+004	3,3709830E-001	-2,9327031E-003
26/08/2025 22:00:11.3925	1,0020785E+004	3,3737674E-001	-1,5488482E-003
26/08/2025 22:00:11.8838	7,9597607E+003	3,3797345E-001	-5,7583925E-004
26/08/2025 22:00:12.2783	6,3238188E+003	3,3851773E-001	2,4669693E-004
26/08/2025 22:00:12.9707	5,0216069E+003	3,3884555E-001	9,9049276E-004
26/08/2025 22:00:13.4389	3,9861731E+003	3,3924875E-001	1,5031433E-003
26/08/2025 22:00:13.9060	3,1669595E+003	3,3985937E-001	1,8407287E-003
26/08/2025 22:00:14.3717	2,5158047E+003	3,4006074E-001	2,2137219E-003
26/08/2025 22:00:14.8399	1,9980818E+003	3,4066737E-001	2,7104684E-003
26/08/2025 22:00:15.3069	1,5884750E+003	3,4142002E-001	2,8117769E-003
26/08/2025 22:00:15.7727	1,2604036E+003	3,4187341E-001	3,2454843E-003
26/08/2025 22:00:16.2394	1,0016024E+003	3,4231329E-001	3,3913602E-003
26/08/2025 22:00:16.7077	7,9525409E+002	3,4264478E-001	3,6961641E-003
26/08/2025 22:00:17.1742	6,3181964E+002	3,4337327E-001	3,9965967E-003
26/08/2025 22:00:17.6409	5,0208865E+002	3,4405297E-001	4,2687193E-003
26/08/2025 22:00:18.3315	3,9859698E+002	3,4465989E-001	4,4138525E-003
26/08/2025 22:00:18.7967	3,1672299E+002	3,4514558E-001	4,5916541E-003
26/08/2025 22:00:19.2614	2,5169135E+002	3,4586972E-001	4,7752522E-003
26/08/2025 22:00:19.7299	1,9980818E+002	3,4679845E-001	5,1664282E-003
26/08/2025 22:00:20.1995	1,5862943E+002	3,4712565E-001	5,1981257E-003
26/08/2025 22:00:20.6641	1,2600809E+002	3,4796971E-001	5,5803144E-003
26/08/2025 22:00:21.1314	1,0016024E+002	3,4890503E-001	6,0191988E-003
26/08/2025 22:00:21.6020	7,9516548E+001	3,4974599E-001	6,3189077E-003
26/08/2025 22:00:22.0816	6,3160763E+001	3,5071796E-001	6,4312019E-003
26/08/2025 22:00:22.5489	5,0208866E+001	3,5172752E-001	6,9012456E-003
26/08/2025 22:00:23.0165	3,9859695E+001	3,5264683E-001	7,1704285E-003
26/08/2025 22:00:23.4622	3,1672298E+001	3,5370556E-001	7,6284599E-003
26/08/2025 22:00:23.9277	2,5136747E+001	3,5484043E-001	8,0141341E-003
26/08/2025 22:00:24.3959	1,9980818E+001	3,5595682E-001	8,4702251E-003
26/08/2025 22:00:24.8399	1,5857577E+001	3,5704905E-001	9,0363212E-003
26/08/2025 22:00:25.3868	1,2600809E+001	3,5823378E-001	9,4414055E-003
26/08/2025 22:00:25.8524	1,0016025E+001	3,5952592E-001	9,9208457E-003
26/08/2025 22:00:26.4272	7,9557004E+000	3,6102775E-001	1,0556202E-002
26/08/2025 22:00:26.8072	6,3105812E+000	3,6221936E-001	1,1322317E-002
26/08/2025 22:00:27.2762	5,0144420E+000	3,6373934E-001	1,1878551E-002
26/08/2025 22:00:27.8497	3,9859698E+000	3,6551368E-001	1,2952602E-002
26/08/2025 22:00:28.5577	3,1655185E+000	3,6692029E-001	1,3893789E-002
26/08/2025 22:00:29.4357	2,5136747E+000	3,6891875E-001	1,4608630E-002
26/08/2025 22:00:30.5287	1,9970603E+000	3,7066180E-001	1,5796620E-002
26/08/2025 22:00:32.5760	1,5846856E+000	3,7249318E-001	1,7451199E-002
26/08/2025 22:00:34.2831	1,2596742E+000	3,7438288E-001	1,8916061E-002
26/08/2025 22:00:36.4222	1,0000639E+000	3,7666589E-001	2,1172998E-002
26/08/2025 22:00:39.1031	7,9443753E-001	3,7837735E-001	2,3868350E-002
26/08/2025 22:00:42.4688	6,3126212E-001	3,8112447E-001	2,6957855E-002
26/08/2025 22:00:46.6981	5,0118679E-001	3,8399288E-001	3,0153882E-002
26/08/2025 22:00:52.0056	3,9867833E-001	3,8764799E-001	3,3789169E-002
26/08/2025 22:00:58.6860	3,1619310E-001	3,9105058E-001	3,9860439E-002
26/08/2025 22:01:07.0878	2,5117347E-001	3,9540181E-001	4,5330498E-002
26/08/2025 22:01:17.6388	1,9980818E-001	4,0097979E-001	5,1119320E-002
26/08/2025 22:01:30.9326	1,5846856E-001	4,0786198E-001	5,8627810E-002
26/08/2025 22:01:47.6575	1,2590654E-001	4,1510716E-001	6,7295700E-002
26/08/2025 22:02:08.6778	1,0013975E-001	4,2285368E-001	7,6153293E-002
26/08/2025 22:02:35.1725	7,9421178E-002	4,3247774E-001	8,5186593E-002
26/08/2025 22:03:08.5124	6,3101739E-002	4,4408599E-001	9,5935665E-002
26/08/2025 22:03:50.4510	5,0154075E-002	4,5778087E-001	1,0837928E-001
26/08/2025 22:04:43.2850	3,9804459E-002	4,7137600E-001	1,2227137E-001
26/08/2025 22:05:49.8452	3,1592205E-002	4,8683080E-001	1,3574605E-001
26/08/2025 22:07:13.4645	2,5144994E-002	5,0573349E-001	1,4978991E-001
26/08/2025 22:08:58.8534	1,9949391E-002	5,2825779E-001	1,6670202E-001
26/08/2025 22:11:11.4023	1,5860692E-002	5,5208772E-001	1,8591958E-001
26/08/2025 22:13:58.5527	1,2576789E-002	5,7834238E-001	2,0631346E-001
26/08/2025 22:17:28.5735	1,0009170E-002	6,1111534E-001	2,2555873E-001
26/08/2025 22:17:29.4095	1,9999814E+005	3,1180725E-001	-9,0811402E-002
26/08/2025 22:17:29.8435	1,5885727E+005	3,2195100E-001	-6,8831310E-002
26/08/2025 22:17:30.2775	1,2618765E+005	3,2844183E-001	-5,4179028E-002
26/08/2025 22:17:30.5715	1,0022640E+005	3,3229744E-001	-4,3560844E-002
26/08/2025 22:17:32.2665	7,9609563E+004	3,3370933E-001	-3,4800820E-002
26/08/2025 22:17:33.9605	6,3233004E+004	3,3440378E-001	-2,7241472E-002
26/08/2025 22:17:35.6545	5,0224539E+004	3,3473480E-001	-2,1370316E-002
26/08/2025 22:17:36.3685	3,9897566E+004	3,3513448E-001	-1,6546726E-002
26/08/2025 22:17:36.9425	3,1686090E+004	3,3565190E-001	-1,2532694E-002
26/08/2025 22:17:37.3765	2,5172580E+004	3,3598748E-001	-9,0787299E-003
26/08/2025 22:17:37.8105	1,9995176E+004	3,3630857E-001	-6,4186640E-003
26/08/2025 22:17:38.2445	1,5884798E+004	3,3682361E-001	-4,4943257E-003
26/08/2025 22:17:38.6785	1,2618766E+004	3,3717731E-001	-2,6485489E-003
26/08/2025 22:17:39.1135	1,0020785E+004	3,3774689E-001	-1,3836308E-003
26/08/2025 22:17:39.6048	7,9597607E+003	3,3826235E-001	-2,8224802E-004
26/08/2025 22:17:40.1863	6,3238188E+003	3,3828840E-001	4,9442094E-004
26/08/2025 22:17:40.6558	5,0216069E+003	3,3910370E-001	1,0748330E-003
26/08/2025 22:17:41.1240	3,9861731E+003	3,3960384E-001	1,2916431E-003
26/08/2025 22:17:41.8140	3,1669595E+003	3,3999306E-001	1,7949935E-003
26/08/2025 22:17:42.2797	2,5158047E+003	3,4041217E-001	2,1453360E-003
26/08/2025 22:17:42.7480	1,9980818E+003	3,4095946E-001	2,5580113E-003
26/08/2025 22:17:43.2150	1,5884750E+003	3,4137768E-001	2,7952355E-003
26/08/2025 22:17:43.6807	1,2604036E+003	3,4207618E-001	3,2865247E-003
26/08/2025 22:17:44.1485	1,0016024E+003	3,4236121E-001	3,4617539E-003
26/08/2025 22:17:44.6157	7,9525409E+002	3,4312034E-001	3,5926278E-003
26/08/2025 22:17:45.0832	6,3181964E+002	3,4343258E-001	3,8789052E-003
26/08/2025 22:17:45.5500	5,0208865E+002	3,4414420E-001	4,1138879E-003
26/08/2025 22:17:46.0175	3,9859698E+002	3,4471807E-001	4,5085279E-003
26/08/2025 22:17:46.4827	3,1672299E+002	3,4535107E-001	4,3864283E-003
26/08/2025 22:17:46.9474	2,5169135E+002	3,4609523E-001	4,6627400E-003
26/08/2025 22:17:47.4160	1,9980818E+002	3,4679097E-001	5,0305864E-003
26/08/2025 22:17:47.8855	1,5862943E+002	3,4750807E-001	5,3114998E-003
26/08/2025 22:17:48.3502	1,2600809E+002	3,4842280E-001	5,5497843E-003
26/08/2025 22:17:48.8175	1,0016024E+002	3,4906107E-001	6,0206112E-003
26/08/2025 22:17:49.2880	7,9516548E+001	3,5005820E-001	6,2924949E-003
26/08/2025 22:17:49.7666	6,3160763E+001	3,5093865E-001	6,5727248E-003
26/08/2025 22:17:50.2330	5,0208866E+001	3,5174674E-001	6,9981338E-003
26/08/2025 22:17:50.7005	3,9859695E+001	3,5274446E-001	7,1010455E-003
26/08/2025 22:17:51.1462	3,1672298E+001	3,5378134E-001	7,5868405E-003
26/08/2025 22:17:51.6117	2,5136747E+001	3,5487688E-001	7,9990532E-003
26/08/2025 22:17:52.0800	1,9980818E+001	3,5610864E-001	8,3967103E-003
26/08/2025 22:17:52.5240	1,5857577E+001	3,5724583E-001	8,9568617E-003
26/08/2025 22:17:53.0709	1,2600809E+001	3,5843432E-001	9,5275277E-003
26/08/2025 22:17:53.5365	1,0016025E+001	3,5971424E-001	1,0000098E-002
26/08/2025 22:17:54.1112	7,9557004E+000	3,6106497E-001	1,0593968E-002
26/08/2025 22:17:54.4913	6,3105812E+000	3,6231899E-001	1,1098858E-002
26/08/2025 22:17:54.9602	5,0144420E+000	3,6410820E-001	1,2016824E-002
26/08/2025 22:17:55.5337	3,9859698E+000	3,6555362E-001	1,2524946E-002
26/08/2025 22:17:56.2418	3,1655185E+000	3,6735696E-001	1,3662274E-002
26/08/2025 22:17:57.1197	2,5136747E+000	3,6878610E-001	1,4797997E-002
26/08/2025 22:17:58.2127	1,9970603E+000	3,7070131E-001	1,5762888E-002
26/08/2025 22:18:00.2601	1,5846856E+000	3,7264812E-001	1,7320260E-002
26/08/2025 22:18:01.9670	1,2596742E+000	3,7468761E-001	1,8808337E-002
26/08/2025 22:18:04.1051	1,0000639E+000	3,7695929E-001	2,1558482E-002
26/08/2025 22:18:06.7873	7,9443753E-001	3,7858602E-001	2,4188455E-002
26/08/2025 22:18:10.1518	6,3126212E-001	3,8129994E-001	2,6800931E-002
26/08/2025 22:18:14.3820	5,0118679E-001	3,8426638E-001	3,0316664E-002
26/08/2025 22:18:19.6897	3,9867833E-001	3,8769859E-001	3,3985484E-002
26/08/2025 22:18:26.3701	3,1619310E-001	3,9080340E-001	3,9340716E-002
26/08/2025 22:18:34.7718	2,5117347E-001	3,9580777E-001	4,4682149E-002
26/08/2025 22:18:45.3229	1,9980818E-001	4,0181699E-001	5,1206682E-002
26/08/2025 22:18:58.6157	1,5846856E-001	4,0807220E-001	5,9162792E-002
26/08/2025 22:19:15.3417	1,2590654E-001	4,1458929E-001	6,7326590E-002
26/08/2025 22:19:36.3621	1,0013975E-001	4,2280570E-001	7,5457729E-002
26/08/2025 22:20:02.8578	7,9421178E-002	4,3331984E-001	8,4906444E-002
26/08/2025 22:20:36.1967	6,3101739E-002	4,4489649E-001	9,6265346E-002
26/08/2025 22:21:18.1364	5,0154075E-002	4,5711914E-001	1,0908164E-001
26/08/2025 22:22:10.9713	3,9804459E-002	4,7057152E-001	1,2157916E-001
26/08/2025 22:23:17.5325	3,1592205E-002	4,8734584E-001	1,3451357E-001
26/08/2025 22:24:41.1519	2,5144994E-002	5,0706118E-001	1,4990892E-001