File: data/phase_2a/Sergey/1/8.3/02 polarisation/SN50_C5D1E2_mr2_0,1MFeCN6_in_1M_KCl_3306mL_symmetric_balanced_4_point_PEIS_10mHz_200kHz_10mV_03_CP_C16.txt
time/s	I/mA	<Ewe/V>
27/08/2025 00:37:51.2597	1,3705294E-001	-3,9587650E-002
27/08/2025 00:37:54.6597	1,1159762E-001	-2,5198346E-002
27/08/2025 00:37:58.0597	1,6250826E-001	-1,8892540E-002
27/08/2025 00:38:01.4597	1,8159975E-001	-1,4839253E-002
27/08/2025 00:38:04.8597	1,2432528E-001	-1,1995481E-002
27/08/2025 00:38:08.2597	1,7523590E-001	-9,9639483E-003
27/08/2025 00:38:11.6597	1,3705294E-001	-8,4446343E-003
27/08/2025 00:38:15.0597	1,6250826E-001	-7,3345909E-003
27/08/2025 00:38:18.4597	1,8796356E-001	-6,5074922E-003
27/08/2025 00:38:21.8597	1,3068911E-001	-5,8772746E-003
27/08/2025 00:38:25.2597	1,2432528E-001	-5,3935149E-003
27/08/2025 00:38:28.6597	1,6887209E-001	-5,0308090E-003
27/08/2025 00:38:32.0597	1,4341676E-001	-4,7677280E-003
27/08/2025 00:38:35.4597	1,1796144E-001	-4,5648497E-003
27/08/2025 00:38:38.8597	1,6250826E-001	-4,4423817E-003
27/08/2025 00:38:42.2597	8,6142294E-002	-4,3455074E-003
27/08/2025 00:38:45.6597	1,1796144E-001	-4,3065818E-003
27/08/2025 00:38:49.0597	6,7050815E-002	-4,2827073E-003
27/08/2025 00:38:52.4597	9,8869957E-002	-4,2724311E-003
27/08/2025 00:38:55.8597	1,0523378E-001	-4,2837765E-003
27/08/2025 00:38:59.2597	1,3705294E-001	-4,2848461E-003
27/08/2025 00:39:02.6597	1,2432528E-001	-4,3057417E-003
27/08/2025 00:39:06.0597	9,8869957E-002	-4,3225493E-003
27/08/2025 00:39:09.4597	1,3705294E-001	-4,3346584E-003
27/08/2025 00:39:12.8597	1,6140183E-002	-4,3591065E-003
27/08/2025 00:39:16.2597	1,2432528E-001	-4,3744626E-003
27/08/2025 00:39:19.6597	1,0523378E-001	-4,3882527E-003
27/08/2025 00:39:23.0597	1,7523590E-001	-4,4063977E-003
27/08/2025 00:39:26.4597	7,3414646E-002	-4,4151074E-003
27/08/2025 00:39:29.8597	1,1796144E-001	-4,4353912E-003
27/08/2025 00:39:33.2597	1,6887209E-001	-4,4439859E-003
27/08/2025 00:39:36.6597	1,2432528E-001	-4,4530779E-003
27/08/2025 00:39:40.0597	1,3705294E-001	-4,4662566E-003
27/08/2025 00:39:43.4597	1,6250826E-001	-4,4623986E-003
27/08/2025 00:39:46.8597	1,8796356E-001	-4,4806576E-003
27/08/2025 00:39:50.2597	1,4341676E-001	-4,4888705E-003
27/08/2025 00:39:53.6595	1,3257471E+002	5,6833543E-002
27/08/2025 00:39:57.0595	1,3260016E+002	6,6458941E-002
27/08/2025 00:40:00.4595	1,3260016E+002	7,2532065E-002
27/08/2025 00:40:03.8595	1,3261288E+002	7,6813601E-002
27/08/2025 00:40:07.2595	1,3261288E+002	7,9921402E-002
27/08/2025 00:40:10.6595	1,3262563E+002	8,2223579E-002
27/08/2025 00:40:14.0595	1,3261925E+002	8,3953187E-002
27/08/2025 00:40:17.4595	1,3258743E+002	8,5296087E-002
27/08/2025 00:40:20.8595	1,3266380E+002	8,6401626E-002
27/08/2025 00:40:24.2595	1,3263834E+002	8,7307647E-002
27/08/2025 00:40:27.6595	1,3262563E+002	8,8063501E-002
27/08/2025 00:40:31.0595	1,3264470E+002	8,8695176E-002
27/08/2025 00:40:34.4595	1,3263834E+002	8,9206398E-002
27/08/2025 00:40:37.8595	1,3256197E+002	8,9622311E-002
27/08/2025 00:40:41.2595	1,3261288E+002	8,9981928E-002
27/08/2025 00:40:44.6595	1,3263834E+002	9,0249747E-002
27/08/2025 00:40:48.0595	1,3260652E+002	9,0435468E-002
27/08/2025 00:40:51.4595	1,3258107E+002	9,0563476E-002
27/08/2025 00:40:54.8595	1,3259380E+002	9,0660773E-002
27/08/2025 00:40:58.2595	1,3268288E+002	9,0770788E-002
27/08/2025 00:41:01.6595	1,3262563E+002	9,0882294E-002
27/08/2025 00:41:05.0595	1,3260016E+002	9,1022409E-002
27/08/2025 00:41:08.4595	1,3263199E+002	9,1171689E-002
27/08/2025 00:41:11.8595	1,3260652E+002	9,1353446E-002
27/08/2025 00:41:15.2595	1,3258743E+002	9,1528215E-002
27/08/2025 00:41:18.6595	1,3253015E+002	9,1694228E-002
27/08/2025 00:41:22.0595	1,3263199E+002	9,1885492E-002
27/08/2025 00:41:25.4595	1,3263199E+002	9,2060260E-002
27/08/2025 00:41:28.8595	1,3261288E+002	9,2228793E-002
27/08/2025 00:41:32.2595	1,3260652E+002	9,2347480E-002
27/08/2025 00:41:35.6595	1,3267651E+002	9,2414215E-002
27/08/2025 00:41:39.0595	1,3267651E+002	9,2482477E-002
27/08/2025 00:41:42.4595	1,3265106E+002	9,2581108E-002
27/08/2025 00:41:45.8595	1,3263199E+002	9,2714041E-002
27/08/2025 00:41:49.2595	1,3267651E+002	9,2899613E-002
27/08/2025 00:41:52.5597	1,4341676E-001	3,5463404E-002
27/08/2025 00:41:55.9597	7,9778478E-002	2,3430672E-002
27/08/2025 00:41:59.3597	1,2432528E-001	1,6780345E-002
27/08/2025 00:42:02.7597	1,5614443E-001	1,2326762E-002
27/08/2025 00:42:06.1597	1,5614443E-001	9,1424407E-003
27/08/2025 00:42:09.5597	1,8796356E-001	6,8153189E-003
27/08/2025 00:42:12.9597	9,2506140E-002	5,1065343E-003
27/08/2025 00:42:16.3597	1,4978060E-001	3,8266939E-003
27/08/2025 00:42:19.7597	9,8869957E-002	2,8728491E-003
27/08/2025 00:42:23.1597	1,1159762E-001	2,1295606E-003
27/08/2025 00:42:26.5597	1,1159762E-001	1,5530132E-003
27/08/2025 00:42:29.9597	1,1796144E-001	1,1283860E-003
27/08/2025 00:42:33.3597	1,6887209E-001	7,9822663E-004
27/08/2025 00:42:36.7597	4,1595493E-002	5,7655410E-004
27/08/2025 00:42:40.1597	1,3705294E-001	4,2406115E-004
27/08/2025 00:42:43.5597	1,8796356E-001	3,2523868E-004
27/08/2025 00:42:46.9597	2,2614653E-001	2,8058331E-004
27/08/2025 00:42:50.3597	1,6250826E-001	2,4582163E-004
27/08/2025 00:42:53.7597	9,2506140E-002	2,4337687E-004
27/08/2025 00:42:57.1597	1,9432738E-001	2,5342335E-004
27/08/2025 00:43:00.5597	1,2432528E-001	2,5877130E-004
27/08/2025 00:43:03.9597	1,5614443E-001	2,8650425E-004
27/08/2025 00:43:07.3597	9,8869957E-002	2,9548118E-004
27/08/2025 00:43:10.7597	9,8869957E-002	3,1626178E-004
27/08/2025 00:43:14.1597	1,1159762E-001	3,4036575E-004
27/08/2025 00:43:17.5597	7,9778478E-002	3,5427039E-004
27/08/2025 00:43:20.9597	1,4978060E-001	3,7688459E-004
27/08/2025 00:43:24.3597	6,0686987E-002	3,9254644E-004
27/08/2025 00:43:27.7597	1,2432528E-001	4,0350974E-004
27/08/2025 00:43:31.1597	1,3068911E-001	4,2302976E-004
27/08/2025 00:43:34.5597	1,7523590E-001	4,3739282E-004
27/08/2025 00:43:37.9597	1,4978060E-001	4,4388676E-004
27/08/2025 00:43:41.3597	1,7523590E-001	4,5916662E-004
27/08/2025 00:43:44.7597	1,1159762E-001	4,6573696E-004
27/08/2025 00:43:48.1597	1,9432738E-001	4,6871655E-004
27/08/2025 00:43:51.4599	-1,3239604E+002	-4,7205426E-002
27/08/2025 00:43:54.8599	-1,3238968E+002	-6,4495616E-002
27/08/2025 00:43:58.2599	-1,3230058E+002	-7,2580568E-002
27/08/2025 00:44:01.6599	-1,3234514E+002	-7,7934280E-002
27/08/2025 00:44:05.0599	-1,3238332E+002	-8,1761658E-002
27/08/2025 00:44:08.4599	-1,3243423E+002	-8,4563330E-002
27/08/2025 00:44:11.8599	-1,3233240E+002	-8,6665191E-002
27/08/2025 00:44:15.2599	-1,3237061E+002	-8,8359267E-002
27/08/2025 00:44:18.6599	-1,3235785E+002	-8,9674063E-002
27/08/2025 00:44:22.0599	-1,3233878E+002	-9,0742700E-002
27/08/2025 00:44:25.4599	-1,3238332E+002	-9,1633894E-002
27/08/2025 00:44:28.8599	-1,3237061E+002	-9,2345782E-002
27/08/2025 00:44:32.2599	-1,3232603E+002	-9,2966489E-002
27/08/2025 00:44:35.6599	-1,3235150E+002	-9,3473740E-002
27/08/2025 00:44:39.0599	-1,3235150E+002	-9,3848214E-002
27/08/2025 00:44:42.4599	-1,3234514E+002	-9,4130814E-002
27/08/2025 00:44:45.8599	-1,3244696E+002	-9,4304159E-002
27/08/2025 00:44:49.2599	-1,3236423E+002	-9,4402187E-002
27/08/2025 00:44:52.6599	-1,3242149E+002	-9,4515026E-002
27/08/2025 00:44:56.0599	-1,3238332E+002	-9,4623357E-002
27/08/2025 00:44:59.4599	-1,3237061E+002	-9,4752736E-002
27/08/2025 00:45:02.8599	-1,3235150E+002	-9,4936833E-002
27/08/2025 00:45:06.2599	-1,3237061E+002	-9,5081799E-002
27/08/2025 00:45:09.6599	-1,3235785E+002	-9,5253162E-002
27/08/2025 00:45:13.0599	-1,3231967E+002	-9,5426276E-002
27/08/2025 00:45:16.4599	-1,3235785E+002	-9,5604323E-002
27/08/2025 00:45:19.8599	-1,3229422E+002	-9,5799491E-002
27/08/2025 00:45:23.2599	-1,3241513E+002	-9,5935710E-002
27/08/2025 00:45:26.6599	-1,3239604E+002	-9,6048705E-002
27/08/2025 00:45:30.0599	-1,3231332E+002	-9,6141718E-002
27/08/2025 00:45:33.4599	-1,3231332E+002	-9,6188784E-002
27/08/2025 00:45:36.8599	-1,3235785E+002	-9,6278705E-002
27/08/2025 00:45:40.2599	-1,3235785E+002	-9,6388943E-002
27/08/2025 00:45:43.6599	-1,3247241E+002	-9,6554354E-002
27/08/2025 00:45:47.0599	-1,3236423E+002	-9,6725106E-002
27/08/2025 00:45:50.4599	-1,3238332E+002	-9,6909642E-002
27/08/2025 00:45:53.7601	1,5906096E+002	4,0760394E-002
27/08/2025 00:45:57.1601	1,5906734E+002	6,0861696E-002
27/08/2025 00:46:00.5601	1,5917551E+002	7,3464133E-002
27/08/2025 00:46:03.9601	1,5906734E+002	8,2371913E-002
27/08/2025 00:46:07.3601	1,5913097E+002	8,8951074E-002
27/08/2025 00:46:10.7601	1,5908005E+002	9,3853727E-002
27/08/2025 00:46:14.1601	1,5908005E+002	9,7603172E-002
27/08/2025 00:46:17.5601	1,5908643E+002	1,0050100E-001
27/08/2025 00:46:20.9601	1,5907368E+002	1,0277254E-001
27/08/2025 00:46:24.3601	1,5905460E+002	1,0462790E-001
27/08/2025 00:46:27.7601	1,5913733E+002	1,0611936E-001
27/08/2025 00:46:31.1601	1,5912460E+002	1,0732437E-001
27/08/2025 00:46:34.5601	1,5913733E+002	1,0831214E-001
27/08/2025 00:46:37.9601	1,5911188E+002	1,0903678E-001
27/08/2025 00:46:41.3601	1,5913097E+002	1,0956302E-001
27/08/2025 00:46:44.7601	1,5902278E+002	1,0993559E-001
27/08/2025 00:46:48.1601	1,5913733E+002	1,1014255E-001
27/08/2025 00:46:51.5601	1,5909277E+002	1,1035513E-001
27/08/2025 00:46:54.9601	1,5911188E+002	1,1054319E-001
27/08/2025 00:46:58.3601	1,5904825E+002	1,1071237E-001
27/08/2025 00:47:01.7601	1,5911188E+002	1,1094944E-001
27/08/2025 00:47:05.1601	1,5908005E+002	1,1115484E-001
27/08/2025 00:47:08.5601	1,5902914E+002	1,1133954E-001
27/08/2025 00:47:11.9601	1,5911823E+002	1,1156797E-001
27/08/2025 00:47:15.3601	1,5908005E+002	1,1175862E-001
27/08/2025 00:47:18.7601	1,5906096E+002	1,1196677E-001
27/08/2025 00:47:22.1601	1,5908643E+002	1,1215215E-001
27/08/2025 00:47:25.5601	1,5911823E+002	1,1224181E-001
27/08/2025 00:47:28.9601	1,5911188E+002	1,1231402E-001
27/08/2025 00:47:32.3601	1,5911188E+002	1,1239419E-001
27/08/2025 00:47:35.7601	1,5911188E+002	1,1246073E-001
27/08/2025 00:47:39.1601	1,5915642E+002	1,1261449E-001
27/08/2025 00:47:42.5601	1,5905460E+002	1,1279628E-001
27/08/2025 00:47:45.9601	1,5912460E+002	1,1298651E-001
27/08/2025 00:47:49.3601	1,5904825E+002	1,1322484E-001
27/08/2025 00:47:52.6605	1,4341676E-001	4,2933919E-002
27/08/2025 00:47:56.0605	7,9778478E-002	2,8712114E-002
27/08/2025 00:47:59.4605	1,1159762E-001	2,0828474E-002
27/08/2025 00:48:02.8605	1,4978060E-001	1,5528695E-002
27/08/2025 00:48:06.2605	1,1796144E-001	1,1753730E-002
27/08/2025 00:48:09.6605	1,0523378E-001	8,9899097E-003
27/08/2025 00:48:13.0605	1,3705294E-001	6,9631133E-003
27/08/2025 00:48:16.4605	1,6250826E-001	5,4354332E-003
27/08/2025 00:48:19.8605	1,0523378E-001	4,2771823E-003
27/08/2025 00:48:23.2605	1,4341676E-001	3,3861757E-003
27/08/2025 00:48:26.6605	1,3068911E-001	2,7060693E-003
27/08/2025 00:48:30.0605	7,3414646E-002	2,1865543E-003
27/08/2025 00:48:33.4605	1,6250826E-001	1,7963068E-003
27/08/2025 00:48:36.8605	1,4978060E-001	1,5349067E-003
27/08/2025 00:48:40.2605	1,2432528E-001	1,3438320E-003
27/08/2025 00:48:43.6605	1,3705294E-001	1,2333205E-003
27/08/2025 00:48:47.0605	1,5614443E-001	1,1726593E-003
27/08/2025 00:48:50.4605	1,8159975E-001	1,1369428E-003
27/08/2025 00:48:53.8605	1,5614443E-001	1,1346126E-003
27/08/2025 00:48:57.2605	6,7050815E-002	1,1368282E-003
27/08/2025 00:49:00.6605	1,4341676E-001	1,1515351E-003
27/08/2025 00:49:04.0605	1,6887209E-001	1,1725067E-003
27/08/2025 00:49:07.4605	1,3705294E-001	1,1927906E-003
27/08/2025 00:49:10.8605	1,3705294E-001	1,2215551E-003
27/08/2025 00:49:14.2605	1,1796144E-001	1,2456208E-003
27/08/2025 00:49:17.6605	1,0523378E-001	1,2686552E-003
27/08/2025 00:49:21.0605	1,3068911E-001	1,2978397E-003
27/08/2025 00:49:24.4605	1,4341676E-001	1,3141891E-003
27/08/2025 00:49:27.8605	1,3068911E-001	1,3377964E-003
27/08/2025 00:49:31.2605	1,5614443E-001	1,3557504E-003
27/08/2025 00:49:34.6605	1,2432528E-001	1,3639632E-003
27/08/2025 00:49:38.0605	1,6887209E-001	1,3903974E-003
27/08/2025 00:49:41.4605	1,2432528E-001	1,3966621E-003
27/08/2025 00:49:44.8605	1,3068911E-001	1,4091533E-003
27/08/2025 00:49:48.2605	9,8869957E-002	1,4209952E-003
27/08/2025 00:49:51.5607	-1,5891411E+002	-5,7217855E-002
27/08/2025 00:49:54.9607	-1,5886320E+002	-7,6784246E-002
27/08/2025 00:49:58.3607	-1,5883139E+002	-8,6325184E-002
27/08/2025 00:50:01.7607	-1,5878046E+002	-9,2693478E-002
27/08/2025 00:50:05.1607	-1,5885048E+002	-9,7324379E-002
27/08/2025 00:50:08.5607	-1,5886957E+002	-1,0078543E-001
27/08/2025 00:50:11.9607	-1,5889502E+002	-1,0347655E-001
27/08/2025 00:50:15.3607	-1,5883774E+002	-1,0553887E-001
27/08/2025 00:50:18.7607	-1,5881865E+002	-1,0718822E-001
27/08/2025 00:50:22.1607	-1,5886957E+002	-1,0853308E-001
27/08/2025 00:50:25.5607	-1,5882503E+002	-1,0963757E-001
27/08/2025 00:50:28.9607	-1,5887593E+002	-1,1053251E-001
27/08/2025 00:50:32.3607	-1,5889502E+002	-1,1128918E-001
27/08/2025 00:50:35.7607	-1,5891411E+002	-1,1186687E-001
27/08/2025 00:50:39.1607	-1,5886320E+002	-1,1230292E-001
27/08/2025 00:50:42.5607	-1,5881229E+002	-1,1258674E-001
27/08/2025 00:50:45.9607	-1,5890138E+002	-1,1277354E-001
27/08/2025 00:50:49.3607	-1,5883139E+002	-1,1298558E-001
27/08/2025 00:50:52.7607	-1,5888231E+002	-1,1316779E-001
27/08/2025 00:50:56.1607	-1,5892049E+002	-1,1337515E-001
27/08/2025 00:50:59.5607	-1,5888231E+002	-1,1361159E-001
27/08/2025 00:51:02.9607	-1,5886957E+002	-1,1380836E-001
27/08/2025 00:51:06.3607	-1,5887593E+002	-1,1403512E-001
27/08/2025 00:51:09.7607	-1,5882503E+002	-1,1424884E-001
27/08/2025 00:51:13.1607	-1,5881229E+002	-1,1443507E-001
27/08/2025 00:51:16.5607	-1,5886320E+002	-1,1464842E-001
27/08/2025 00:51:19.9607	-1,5885048E+002	-1,1480621E-001
27/08/2025 00:51:23.3607	-1,5891411E+002	-1,1490309E-001
27/08/2025 00:51:26.7607	-1,5882503E+002	-1,1498114E-001
27/08/2025 00:51:30.1607	-1,5886320E+002	-1,1505860E-001
27/08/2025 00:51:33.5607	-1,5887593E+002	-1,1516693E-001
27/08/2025 00:51:36.9607	-1,5886320E+002	-1,1534258E-001
27/08/2025 00:51:40.3607	-1,5890138E+002	-1,1550993E-001
27/08/2025 00:51:43.7607	-1,5878685E+002	-1,1573981E-001
27/08/2025 00:51:47.1607	-1,5892683E+002	-1,1596187E-001
27/08/2025 00:51:50.5607	-1,5883139E+002	-1,1617560E-001
27/08/2025 00:51:53.8609	1,8568723E+002	4,8190799E-002
27/08/2025 00:51:57.2609	1,8571268E+002	7,1306430E-002
27/08/2025 00:52:00.6609	1,8568723E+002	8,5971810E-002
27/08/2025 00:52:04.0609	1,8561722E+002	9,6459024E-002
27/08/2025 00:52:07.4609	1,8568088E+002	1,0430133E-001
27/08/2025 00:52:10.8609	1,8569357E+002	1,1025734E-001
27/08/2025 00:52:14.2609	1,8568088E+002	1,1481567E-001
27/08/2025 00:52:17.6609	1,8569357E+002	1,1835215E-001
27/08/2025 00:52:21.0609	1,8564267E+002	1,2116437E-001
27/08/2025 00:52:24.4609	1,8562994E+002	1,2343737E-001
27/08/2025 00:52:27.8609	1,8563631E+002	1,2526491E-001
27/08/2025 00:52:31.2609	1,8562994E+002	1,2677369E-001
27/08/2025 00:52:34.6609	1,8562360E+002	1,2790470E-001
27/08/2025 00:52:38.0609	1,8563631E+002	1,2871866E-001
27/08/2025 00:52:41.4609	1,8563631E+002	1,2931284E-001
27/08/2025 00:52:44.8609	1,8561086E+002	1,2973373E-001
27/08/2025 00:52:48.2609	1,8569357E+002	1,3008581E-001
27/08/2025 00:52:51.6609	1,8570631E+002	1,3043378E-001
27/08/2025 00:52:55.0609	1,8563631E+002	1,3072318E-001
27/08/2025 00:52:58.4609	1,8563631E+002	1,3102293E-001
27/08/2025 00:53:01.8609	1,8561086E+002	1,3131362E-001
27/08/2025 00:53:05.2609	1,8565540E+002	1,3156204E-001
27/08/2025 00:53:08.6609	1,8564905E+002	1,3185924E-001
27/08/2025 00:53:12.0609	1,8561086E+002	1,3211031E-001
27/08/2025 00:53:15.4609	1,8556631E+002	1,3231622E-001
27/08/2025 00:53:18.8609	1,8563631E+002	1,3249350E-001
27/08/2025 00:53:22.2609	1,8562994E+002	1,3257399E-001
27/08/2025 00:53:25.6609	1,8561086E+002	1,3267292E-001
27/08/2025 00:53:29.0609	1,8562360E+002	1,3280426E-001
27/08/2025 00:53:32.4609	1,8568723E+002	1,3294177E-001
27/08/2025 00:53:35.8609	1,8571268E+002	1,3317476E-001
27/08/2025 00:53:39.2609	1,8562994E+002	1,3341947E-001
27/08/2025 00:53:42.6609	1,8564267E+002	1,3366531E-001
27/08/2025 00:53:46.0609	1,8569995E+002	1,3396972E-001
27/08/2025 00:53:49.4609	1,8566812E+002	1,3423048E-001
27/08/2025 00:53:52.7613	1,4341676E-001	5,0353393E-002
27/08/2025 00:53:56.1613	1,2432528E-001	3,3956390E-002
27/08/2025 00:53:59.5613	1,6887209E-001	2,4866711E-002
27/08/2025 00:54:02.9613	1,0523378E-001	1,8765504E-002
27/08/2025 00:54:06.3613	8,6142294E-002	1,4396840E-002
27/08/2025 00:54:09.7613	9,2506140E-002	1,1202815E-002
27/08/2025 00:54:13.1613	1,4978060E-001	8,8381423E-003
27/08/2025 00:54:16.5613	1,3705294E-001	7,0712566E-003
27/08/2025 00:54:19.9613	1,1796144E-001	5,7240315E-003
27/08/2025 00:54:23.3613	1,3068911E-001	4,6829386E-003
27/08/2025 00:54:26.7613	1,3068911E-001	3,8786836E-003
27/08/2025 00:54:30.1613	1,3705294E-001	3,2691320E-003
27/08/2025 00:54:33.5613	1,4341676E-001	2,8236096E-003
27/08/2025 00:54:36.9613	1,8796356E-001	2,5094941E-003
27/08/2025 00:54:40.3613	1,0523378E-001	2,2885092E-003
27/08/2025 00:54:43.7613	1,0523378E-001	2,1487749E-003
27/08/2025 00:54:47.1613	1,2432528E-001	2,0750493E-003
27/08/2025 00:54:50.5613	1,1159762E-001	2,0334120E-003
27/08/2025 00:54:53.9613	7,3414646E-002	2,0343668E-003
27/08/2025 00:54:57.3613	1,4978060E-001	2,0330681E-003
27/08/2025 00:55:00.7613	1,4341676E-001	2,0519006E-003
27/08/2025 00:55:04.1613	6,7050815E-002	2,0797481E-003
27/08/2025 00:55:07.5613	1,0523378E-001	2,0946078E-003
27/08/2025 00:55:10.9613	9,2506140E-002	2,1371238E-003
27/08/2025 00:55:14.3613	1,0523378E-001	2,1647804E-003
27/08/2025 00:55:17.7613	1,1796144E-001	2,1892283E-003
27/08/2025 00:55:21.1613	1,6250826E-001	2,2211631E-003
27/08/2025 00:55:24.5613	1,1159762E-001	2,2407214E-003
27/08/2025 00:55:27.9613	1,4978060E-001	2,2630682E-003
27/08/2025 00:55:31.3613	1,3705294E-001	2,2927111E-003
27/08/2025 00:55:34.7613	1,3705294E-001	2,3050113E-003
27/08/2025 00:55:38.1613	1,5614443E-001	2,3218957E-003
27/08/2025 00:55:41.5613	1,5614443E-001	2,3353419E-003
27/08/2025 00:55:44.9613	1,3705294E-001	2,3456176E-003
27/08/2025 00:55:48.3613	2,0705505E-001	2,3621961E-003
27/08/2025 00:55:51.6615	-1,8532401E+002	-6,7120157E-002
27/08/2025 00:55:55.0615	-1,8531128E+002	-8,8837609E-002
27/08/2025 00:55:58.4615	-1,8535582E+002	-9,9856138E-002
27/08/2025 00:56:01.8615	-1,8536220E+002	-1,0739155E-001
27/08/2025 00:56:05.2615	-1,8535582E+002	-1,1296694E-001
27/08/2025 00:56:08.6615	-1,8531763E+002	-1,1719523E-001
27/08/2025 00:56:12.0615	-1,8539400E+002	-1,2045556E-001
27/08/2025 00:56:15.4615	-1,8533037E+002	-1,2298361E-001
27/08/2025 00:56:18.8615	-1,8534309E+002	-1,2499008E-001
27/08/2025 00:56:22.2615	-1,8534309E+002	-1,2662694E-001
27/08/2025 00:56:25.6615	-1,8534309E+002	-1,2796694E-001
27/08/2025 00:56:29.0615	-1,8537491E+002	-1,2902920E-001
27/08/2025 00:56:32.4615	-1,8533673E+002	-1,2982272E-001
27/08/2025 00:56:35.8615	-1,8533037E+002	-1,3044262E-001
27/08/2025 00:56:39.2615	-1,8538765E+002	-1,3088979E-001
27/08/2025 00:56:42.6615	-1,8528583E+002	-1,3123344E-001
27/08/2025 00:56:46.0615	-1,8532401E+002	-1,3155907E-001
27/08/2025 00:56:49.4615	-1,8536220E+002	-1,3184710E-001
27/08/2025 00:56:52.8615	-1,8534309E+002	-1,3212788E-001
27/08/2025 00:56:56.2615	-1,8531763E+002	-1,3245407E-001
27/08/2025 00:56:59.6615	-1,8529855E+002	-1,3270481E-001
27/08/2025 00:57:03.0615	-1,8533673E+002	-1,3298377E-001
27/08/2025 00:57:06.4615	-1,8538765E+002	-1,3326329E-001
27/08/2025 00:57:09.8615	-1,8533037E+002	-1,3352656E-001
27/08/2025 00:57:13.2615	-1,8530492E+002	-1,3376328E-001
27/08/2025 00:57:16.6615	-1,8533037E+002	-1,3391623E-001
27/08/2025 00:57:20.0615	-1,8531128E+002	-1,3398740E-001
27/08/2025 00:57:23.4615	-1,8529218E+002	-1,3404916E-001
27/08/2025 00:57:26.8615	-1,8532401E+002	-1,3414314E-001
27/08/2025 00:57:30.2615	-1,8534946E+002	-1,3429254E-001
27/08/2025 00:57:33.6615	-1,8532401E+002	-1,3452029E-001
27/08/2025 00:57:37.0615	-1,8534946E+002	-1,3476449E-001
27/08/2025 00:57:40.4615	-1,8531763E+002	-1,3504198E-001
27/08/2025 00:57:43.8615	-1,8529218E+002	-1,3530342E-001
27/08/2025 00:57:47.2615	-1,8533673E+002	-1,3558911E-001
27/08/2025 00:57:50.6615	-1,8531763E+002	-1,3589436E-001
27/08/2025 00:57:53.9617	2,1213531E+002	5,5758182E-002
27/08/2025 00:57:57.3617	2,1214803E+002	8,1729010E-002
27/08/2025 00:58:00.7617	2,1224347E+002	9,8446928E-002
27/08/2025 00:58:04.1617	2,1217349E+002	1,1058059E-001
27/08/2025 00:58:07.5617	2,1214166E+002	1,1976653E-001
27/08/2025 00:58:10.9617	2,1217349E+002	1,2675962E-001
27/08/2025 00:58:14.3617	2,1216711E+002	1,3212976E-001
27/08/2025 00:58:17.7617	2,1213531E+002	1,3632001E-001
27/08/2025 00:58:21.1617	2,1219894E+002	1,3968924E-001
27/08/2025 00:58:24.5617	2,1217349E+002	1,4240070E-001
27/08/2025 00:58:27.9617	2,1214166E+002	1,4461647E-001
27/08/2025 00:58:31.3617	2,1216711E+002	1,4630878E-001
27/08/2025 00:58:34.7617	2,1214166E+002	1,4762881E-001
27/08/2025 00:58:38.1617	2,1216077E+002	1,4861645E-001
27/08/2025 00:58:41.5617	2,1216077E+002	1,4936712E-001
27/08/2025 00:58:44.9617	2,1216711E+002	1,5002397E-001
27/08/2025 00:58:48.3617	2,1212257E+002	1,5056808E-001
27/08/2025 00:58:51.7617	2,1214803E+002	1,5104870E-001
27/08/2025 00:58:55.1617	2,1217984E+002	1,5146804E-001
27/08/2025 00:58:58.5617	2,1217984E+002	1,5184544E-001
27/08/2025 00:59:01.9617	2,1213531E+002	1,5220070E-001
27/08/2025 00:59:05.3617	2,1214166E+002	1,5252911E-001
27/08/2025 00:59:08.7617	2,1215439E+002	1,5281513E-001
27/08/2025 00:59:12.1617	2,1215439E+002	1,5305991E-001
27/08/2025 00:59:15.5617	2,1215439E+002	1,5322106E-001
27/08/2025 00:59:18.9617	2,1216077E+002	1,5331791E-001
27/08/2025 00:59:22.3617	2,1222440E+002	1,5346147E-001
27/08/2025 00:59:25.7617	2,1210985E+002	1,5361369E-001
27/08/2025 00:59:29.1617	2,1213531E+002	1,5378216E-001
27/08/2025 00:59:32.5617	2,1221803E+002	1,5403588E-001
27/08/2025 00:59:35.9617	2,1217349E+002	1,5431993E-001
27/08/2025 00:59:39.3617	2,1213531E+002	1,5463929E-001
27/08/2025 00:59:42.7617	2,1215439E+002	1,5496920E-001
27/08/2025 00:59:46.1617	2,1214166E+002	1,5527669E-001
27/08/2025 00:59:49.5617	2,1207166E+002	1,5565296E-001
27/08/2025 00:59:52.8621	8,6142294E-002	5,7650439E-002
27/08/2025 00:59:56.2621	1,1159762E-001	3,9121710E-002
27/08/2025 00:59:59.6621	1,8159975E-001	2,8843025E-002
27/08/2025 01:00:03.0621	1,3068911E-001	2,1955479E-002
27/08/2025 01:00:06.4621	9,8869957E-002	1,7019970E-002
27/08/2025 01:00:09.8621	1,1159762E-001	1,3404565E-002
27/08/2025 01:00:13.2621	1,2432528E-001	1,0723944E-002
27/08/2025 01:00:16.6621	1,0523378E-001	8,7121604E-003
27/08/2025 01:00:20.0621	8,6142294E-002	7,1700024E-003
27/08/2025 01:00:23.4621	1,2432528E-001	5,9750797E-003
27/08/2025 01:00:26.8621	1,5614443E-001	5,0537810E-003
27/08/2025 01:00:30.2621	1,2432528E-001	4,3538106E-003
27/08/2025 01:00:33.6621	1,5614443E-001	3,8381920E-003
27/08/2025 01:00:37.0621	1,4341676E-001	3,4661659E-003
27/08/2025 01:00:40.4621	1,3068911E-001	3,2289079E-003
27/08/2025 01:00:43.8621	1,8159975E-001	3,0775608E-003
27/08/2025 01:00:47.2621	1,7523590E-001	2,9891666E-003
27/08/2025 01:00:50.6621	1,1796144E-001	2,9463067E-003
27/08/2025 01:00:54.0621	1,8796356E-001	2,9333953E-003
27/08/2025 01:00:57.4621	1,4341676E-001	2,9368333E-003
27/08/2025 01:01:00.8621	1,7523590E-001	2,9599059E-003
27/08/2025 01:01:04.2621	1,1796144E-001	2,9825200E-003
27/08/2025 01:01:07.6621	9,8869957E-002	3,0097181E-003
27/08/2025 01:01:11.0621	1,8159975E-001	3,0468865E-003
27/08/2025 01:01:14.4621	1,7523590E-001	3,0767205E-003
27/08/2025 01:01:17.8621	7,9778478E-002	3,1122079E-003
27/08/2025 01:01:21.2621	1,4978060E-001	3,1428440E-003
27/08/2025 01:01:24.6621	9,2506140E-002	3,1673298E-003
27/08/2025 01:01:28.0621	1,3068911E-001	3,1979277E-003
27/08/2025 01:01:31.4621	1,1159762E-001	3,2126347E-003
27/08/2025 01:01:34.8621	1,1159762E-001	3,2401001E-003
27/08/2025 01:01:38.2621	1,3068911E-001	3,2652738E-003
27/08/2025 01:01:41.6621	1,4341676E-001	3,2750913E-003
27/08/2025 01:01:45.0621	1,1159762E-001	3,2947257E-003
27/08/2025 01:01:48.4621	1,1796144E-001	3,3034736E-003
27/08/2025 01:01:51.7623	-2,1184845E+002	-7,6854989E-002
27/08/2025 01:01:55.1623	-2,1177206E+002	-1,0081499E-001
27/08/2025 01:01:58.5623	-2,1172754E+002	-1,1345938E-001
27/08/2025 01:02:01.9623	-2,1180389E+002	-1,2225113E-001
27/08/2025 01:02:05.3623	-2,1179117E+002	-1,2874293E-001
27/08/2025 01:02:08.7623	-2,1175299E+002	-1,3371290E-001
27/08/2025 01:02:12.1623	-2,1184845E+002	-1,3753901E-001
27/08/2025 01:02:15.5623	-2,1182300E+002	-1,4054123E-001
27/08/2025 01:02:18.9623	-2,1178482E+002	-1,4297818E-001
27/08/2025 01:02:22.3623	-2,1180389E+002	-1,4489752E-001
27/08/2025 01:02:25.7623	-2,1182300E+002	-1,4645997E-001
27/08/2025 01:02:29.1623	-2,1179117E+002	-1,4766386E-001
27/08/2025 01:02:32.5623	-2,1179755E+002	-1,4852245E-001
27/08/2025 01:02:35.9623	-2,1178482E+002	-1,4923735E-001
27/08/2025 01:02:39.3623	-2,1184209E+002	-1,4980094E-001
27/08/2025 01:02:42.7623	-2,1184845E+002	-1,5032446E-001
27/08/2025 01:02:46.1623	-2,1183574E+002	-1,5088440E-001
27/08/2025 01:02:49.5623	-2,1170844E+002	-1,5129432E-001
27/08/2025 01:02:52.9623	-2,1177846E+002	-1,5163444E-001
27/08/2025 01:02:56.3623	-2,1182935E+002	-1,5198801E-001
27/08/2025 01:02:59.7623	-2,1183574E+002	-1,5226474E-001
27/08/2025 01:03:03.1623	-2,1181664E+002	-1,5259273E-001
27/08/2025 01:03:06.5623	-2,1181664E+002	-1,5286879E-001
27/08/2025 01:03:09.9623	-2,1181664E+002	-1,5304103E-001
27/08/2025 01:03:13.3623	-2,1186754E+002	-1,5319142E-001
27/08/2025 01:03:16.7623	-2,1170844E+002	-1,5325437E-001
27/08/2025 01:03:20.1623	-2,1188026E+002	-1,5336752E-001
27/08/2025 01:03:23.5623	-2,1178482E+002	-1,5356296E-001
27/08/2025 01:03:26.9623	-2,1181664E+002	-1,5382311E-001
27/08/2025 01:03:30.3623	-2,1185481E+002	-1,5410130E-001
27/08/2025 01:03:33.7623	-2,1177206E+002	-1,5440622E-001
27/08/2025 01:03:37.1623	-2,1183574E+002	-1,5472445E-001
27/08/2025 01:03:40.5623	-2,1177846E+002	-1,5507211E-001
27/08/2025 01:03:43.9623	-2,1182935E+002	-1,5543418E-001
27/08/2025 01:03:47.3623	-2,1177846E+002	-1,5575805E-001
27/08/2025 01:03:50.7623	-2,1179755E+002	-1,5608142E-001
27/08/2025 01:03:54.0625	2,3867883E+002	6,3499421E-002
27/08/2025 01:03:57.4625	2,3862791E+002	9,2311874E-002
27/08/2025 01:04:00.8625	2,3865338E+002	1,1112994E-001
27/08/2025 01:04:04.2625	2,3858974E+002	1,2500824E-001
27/08/2025 01:04:07.6625	2,3857701E+002	1,3561089E-001
27/08/2025 01:04:11.0625	2,3864700E+002	1,4374317E-001
27/08/2025 01:04:14.4625	2,3862791E+002	1,5001415E-001
27/08/2025 01:04:17.8625	2,3864066E+002	1,5488251E-001
27/08/2025 01:04:21.2625	2,3857063E+002	1,5876248E-001
27/08/2025 01:04:24.6625	2,3859610E+002	1,6183415E-001
27/08/2025 01:04:28.0625	2,3863429E+002	1,6428417E-001
27/08/2025 01:04:31.4625	2,3864066E+002	1,6620985E-001
27/08/2025 01:04:34.8625	2,3862791E+002	1,6776018E-001
27/08/2025 01:04:38.2625	2,3858337E+002	1,6898823E-001
27/08/2025 01:04:41.6625	2,3865338E+002	1,7001270E-001
27/08/2025 01:04:45.0625	2,3867883E+002	1,7086339E-001
27/08/2025 01:04:48.4625	2,3862791E+002	1,7158067E-001
27/08/2025 01:04:51.8625	2,3861520E+002	1,7218277E-001
27/08/2025 01:04:55.2625	2,3857063E+002	1,7273766E-001
27/08/2025 01:04:58.6625	2,3860883E+002	1,7320915E-001
27/08/2025 01:05:02.0625	2,3856429E+002	1,7364141E-001
27/08/2025 01:05:05.4625	2,3865338E+002	1,7397614E-001
27/08/2025 01:05:08.8625	2,3858974E+002	1,7422427E-001
27/08/2025 01:05:12.2625	2,3862155E+002	1,7439519E-001
27/08/2025 01:05:15.6625	2,3858974E+002	1,7454870E-001
27/08/2025 01:05:19.0625	2,3857701E+002	1,7470509E-001
27/08/2025 01:05:22.4625	2,3860246E+002	1,7497922E-001
27/08/2025 01:05:25.8625	2,3858974E+002	1,7526977E-001
27/08/2025 01:05:29.2625	2,3864066E+002	1,7561723E-001
27/08/2025 01:05:32.6625	2,3856429E+002	1,7597428E-001
27/08/2025 01:05:36.0625	2,3856429E+002	1,7634405E-001
27/08/2025 01:05:39.4625	2,3863429E+002	1,7674798E-001
27/08/2025 01:05:42.8625	2,3863429E+002	1,7717637E-001
27/08/2025 01:05:46.2625	2,3860246E+002	1,7754306E-001
27/08/2025 01:05:49.6625	2,3859610E+002	1,7787594E-001
27/08/2025 01:05:52.9629	1,7523590E-001	6,4771771E-002
27/08/2025 01:05:56.3629	2,0705505E-001	4,4139229E-002
27/08/2025 01:05:59.7629	8,6142294E-002	3,2709286E-002
27/08/2025 01:06:03.1629	1,1159762E-001	2,5031237E-002
27/08/2025 01:06:06.5629	1,1796144E-001	1,9546991E-002
27/08/2025 01:06:09.9629	9,2506140E-002	1,5511199E-002
27/08/2025 01:06:13.3629	1,8796356E-001	1,2535256E-002
27/08/2025 01:06:16.7629	1,2432528E-001	1,0267382E-002
27/08/2025 01:06:20.1629	1,5614443E-001	8,5467556E-003
27/08/2025 01:06:23.5629	1,4341676E-001	7,2133210E-003
27/08/2025 01:06:26.9629	8,6142294E-002	6,1781490E-003
27/08/2025 01:06:30.3629	1,3068911E-001	5,4035368E-003
27/08/2025 01:06:33.7629	1,1796144E-001	4,8300074E-003
27/08/2025 01:06:37.1629	1,9432738E-001	4,4176038E-003
27/08/2025 01:06:40.5629	1,4341676E-001	4,1502826E-003
27/08/2025 01:06:43.9629	1,6250826E-001	3,9810203E-003
27/08/2025 01:06:47.3629	1,6887209E-001	3,8834587E-003
27/08/2025 01:06:50.7629	1,8796356E-001	3,8399110E-003
27/08/2025 01:06:54.1629	2,4523805E-001	3,8238671E-003
27/08/2025 01:06:57.5629	1,4341676E-001	3,8401401E-003
27/08/2025 01:07:00.9629	1,4978060E-001	3,8615321E-003
27/08/2025 01:07:04.3629	1,5614443E-001	3,8828854E-003
27/08/2025 01:07:07.7629	1,2432528E-001	3,9248290E-003
27/08/2025 01:07:11.1629	2,1341887E-001	3,9613093E-003
27/08/2025 01:07:14.5629	1,8159975E-001	4,0000821E-003
27/08/2025 01:07:17.9629	1,3068911E-001	4,0412992E-003
27/08/2025 01:07:21.3629	1,4978060E-001	4,0678862E-003
27/08/2025 01:07:24.7629	1,1796144E-001	4,1043293E-003
27/08/2025 01:07:28.1629	1,6887209E-001	4,1262936E-003
27/08/2025 01:07:31.5629	7,9778478E-002	4,1624303E-003
27/08/2025 01:07:34.9629	9,2506140E-002	4,1851210E-003
27/08/2025 01:07:38.3629	1,1796144E-001	4,1988729E-003
27/08/2025 01:07:41.7629	9,8869957E-002	4,2130449E-003
27/08/2025 01:07:45.1629	1,6887209E-001	4,2311135E-003
27/08/2025 01:07:48.5629	1,1796144E-001	4,2464314E-003
27/08/2025 01:07:51.8631	-2,3836017E+002	-8,6604148E-002
27/08/2025 01:07:55.2631	-2,3832198E+002	-1,1293493E-001
27/08/2025 01:07:58.6631	-2,3825835E+002	-1,2728891E-001
27/08/2025 01:08:02.0631	-2,3829652E+002	-1,3732223E-001
27/08/2025 01:08:05.4631	-2,3832198E+002	-1,4487155E-001
27/08/2025 01:08:08.8631	-2,3829652E+002	-1,5063316E-001
27/08/2025 01:08:12.2631	-2,3824561E+002	-1,5509701E-001
27/08/2025 01:08:15.6631	-2,3832198E+002	-1,5862449E-001
27/08/2025 01:08:19.0631	-2,3834106E+002	-1,6132532E-001
27/08/2025 01:08:22.4631	-2,3832834E+002	-1,6344225E-001
27/08/2025 01:08:25.8631	-2,3829016E+002	-1,6511486E-001
27/08/2025 01:08:29.2631	-2,3825197E+002	-1,6639693E-001
27/08/2025 01:08:32.6631	-2,3830923E+002	-1,6751045E-001
27/08/2025 01:08:36.0631	-2,3829016E+002	-1,6845822E-001
27/08/2025 01:08:39.4631	-2,3834743E+002	-1,6926278E-001
27/08/2025 01:08:42.8631	-2,3833472E+002	-1,6995041E-001
27/08/2025 01:08:46.2631	-2,3830289E+002	-1,7050408E-001
27/08/2025 01:08:49.6631	-2,3830923E+002	-1,7103207E-001
27/08/2025 01:08:53.0631	-2,3830923E+002	-1,7151541E-001
27/08/2025 01:08:56.4631	-2,3829016E+002	-1,7194207E-001
27/08/2025 01:08:59.8631	-2,3828378E+002	-1,7237957E-001
27/08/2025 01:09:03.2631	-2,3829016E+002	-1,7266339E-001
27/08/2025 01:09:06.6631	-2,3829016E+002	-1,7288789E-001
27/08/2025 01:09:10.0631	-2,3832834E+002	-1,7304756E-001
27/08/2025 01:09:13.4631	-2,3830289E+002	-1,7322503E-001
27/08/2025 01:09:16.8631	-2,3826471E+002	-1,7344923E-001
27/08/2025 01:09:20.2631	-2,3833472E+002	-1,7378576E-001
27/08/2025 01:09:23.6631	-2,3830923E+002	-1,7411968E-001
27/08/2025 01:09:27.0631	-2,3830289E+002	-1,7448880E-001
27/08/2025 01:09:30.4631	-2,3831561E+002	-1,7486800E-001
27/08/2025 01:09:33.8631	-2,3829652E+002	-1,7524955E-001
27/08/2025 01:09:37.2631	-2,3827744E+002	-1,7565461E-001
27/08/2025 01:09:40.6631	-2,3838560E+002	-1,7601861E-001
27/08/2025 01:09:44.0631	-2,3832198E+002	-1,7629537E-001
27/08/2025 01:09:47.4631	-2,3834106E+002	-1,7658255E-001
27/08/2025 01:09:50.8631	-2,3832834E+002	-1,7675392E-001
27/08/2025 01:09:54.1633	2,6511420E+002	7,1459763E-002
27/08/2025 01:09:57.5633	2,6514597E+002	1,0297474E-001
27/08/2025 01:10:00.9633	2,6509509E+002	1,2386955E-001
27/08/2025 01:10:04.3633	2,6514597E+002	1,3948789E-001
27/08/2025 01:10:07.7633	2,6513327E+002	1,5151949E-001
27/08/2025 01:10:11.1633	2,6515237E+002	1,6086276E-001
27/08/2025 01:10:14.5633	2,6508234E+002	1,6809385E-001
27/08/2025 01:10:17.9633	2,6517783E+002	1,7365861E-001
27/08/2025 01:10:21.3633	2,6507599E+002	1,7804423E-001
27/08/2025 01:10:24.7633	2,6508234E+002	1,8156224E-001
27/08/2025 01:10:28.1633	2,6503146E+002	1,8439341E-001
27/08/2025 01:10:31.5633	2,6510147E+002	1,8678874E-001
27/08/2025 01:10:34.9633	2,6514597E+002	1,8877666E-001
27/08/2025 01:10:38.3633	2,6515872E+002	1,9038208E-001
27/08/2025 01:10:41.7633	2,6513962E+002	1,9174075E-001
27/08/2025 01:10:45.1633	2,6511420E+002	1,9285989E-001
27/08/2025 01:10:48.5633	2,6507599E+002	1,9377278E-001
27/08/2025 01:10:51.9633	2,6510782E+002	1,9460042E-001
27/08/2025 01:10:55.3633	2,6510782E+002	1,9526507E-001
27/08/2025 01:10:58.7633	2,6506326E+002	1,9575287E-001
27/08/2025 01:11:02.1633	2,6517145E+002	1,9614835E-001
27/08/2025 01:11:05.5633	2,6520325E+002	1,9638813E-001
27/08/2025 01:11:08.9633	2,6515237E+002	1,9658417E-001
27/08/2025 01:11:12.3633	2,6516510E+002	1,9686887E-001
27/08/2025 01:11:15.7633	2,6509509E+002	1,9714609E-001
27/08/2025 01:11:19.1633	2,6514597E+002	1,9753103E-001
27/08/2025 01:11:22.5633	2,6512689E+002	1,9793379E-001
27/08/2025 01:11:25.9633	2,6512689E+002	1,9830506E-001
27/08/2025 01:11:29.3633	2,6512689E+002	1,9876046E-001
27/08/2025 01:11:32.7633	2,6510782E+002	1,9920748E-001
27/08/2025 01:11:36.1633	2,6503146E+002	1,9963279E-001
27/08/2025 01:11:39.5633	2,6517783E+002	2,0010422E-001
27/08/2025 01:11:42.9633	2,6508234E+002	2,0045567E-001
27/08/2025 01:11:46.3633	2,6511420E+002	2,0074609E-001
27/08/2025 01:11:49.7633	2,6510782E+002	2,0100823E-001
27/08/2025 01:11:53.0637	1,3068911E-001	7,2073974E-002
27/08/2025 01:11:56.4637	1,4978060E-001	4,9312495E-002
27/08/2025 01:11:59.8637	1,6250826E-001	3,6704320E-002
27/08/2025 01:12:03.2637	1,1796144E-001	2,8218308E-002
27/08/2025 01:12:06.6637	1,4341676E-001	2,2155568E-002
27/08/2025 01:12:10.0637	1,1796144E-001	1,7691635E-002
27/08/2025 01:12:13.4637	1,9432738E-001	1,4374913E-002
27/08/2025 01:12:16.8637	6,7050815E-002	1,1907903E-002
27/08/2025 01:12:20.2637	1,6250826E-001	9,9877603E-003
27/08/2025 01:12:23.6637	8,6142294E-002	8,5153179E-003
27/08/2025 01:12:27.0637	7,9778478E-002	7,3794127E-003
27/08/2025 01:12:30.4637	1,2432528E-001	6,4869928E-003
27/08/2025 01:12:33.8637	1,1159762E-001	5,8549419E-003
27/08/2025 01:12:37.2637	1,5614443E-001	5,4096105E-003
27/08/2025 01:12:40.6637	1,9432738E-001	5,1021413E-003
27/08/2025 01:12:44.0637	1,4341676E-001	4,9155364E-003
27/08/2025 01:12:47.4637	1,4341676E-001	4,8049483E-003
27/08/2025 01:12:50.8637	1,0523378E-001	4,7419951E-003
27/08/2025 01:12:54.2637	2,1341887E-001	4,7371821E-003
27/08/2025 01:12:57.6637	9,2506140E-002	4,7310321E-003
27/08/2025 01:13:01.0637	9,8869957E-002	4,7594910E-003
27/08/2025 01:13:04.4637	1,0523378E-001	4,7970791E-003
27/08/2025 01:13:07.8637	1,4978060E-001	4,8260726E-003
27/08/2025 01:13:11.2637	1,1159762E-001	4,8779096E-003
27/08/2025 01:13:14.6637	1,0523378E-001	4,9157660E-003
27/08/2025 01:13:18.0637	1,8796356E-001	4,9544233E-003
27/08/2025 01:13:21.4637	1,1159762E-001	4,9994993E-003
27/08/2025 01:13:24.8637	1,6250826E-001	5,0256276E-003
27/08/2025 01:13:28.2637	1,4341676E-001	5,0587086E-003
27/08/2025 01:13:31.6637	1,8159975E-001	5,0925920E-003
27/08/2025 01:13:35.0637	1,9432738E-001	5,1114238E-003
27/08/2025 01:13:38.4637	1,6250826E-001	5,1404559E-003
27/08/2025 01:13:41.8637	1,8159975E-001	5,1512662E-003
27/08/2025 01:13:45.2637	2,8867837E-002	5,1742624E-003
27/08/2025 01:13:48.6637	1,1159762E-001	5,1969914E-003
27/08/2025 01:13:51.9639	-2,6479550E+002	-9,6651495E-002
27/08/2025 01:13:55.3639	-2,6478915E+002	-1,2519950E-001
27/08/2025 01:13:58.7639	-2,6473825E+002	-1,4123505E-001
27/08/2025 01:14:02.1639	-2,6478915E+002	-1,5261282E-001
27/08/2025 01:14:05.5639	-2,6477005E+002	-1,6120827E-001
27/08/2025 01:14:08.9639	-2,6471277E+002	-1,6780363E-001
27/08/2025 01:14:12.3639	-2,6477643E+002	-1,7283797E-001
27/08/2025 01:14:15.7639	-2,6476367E+002	-1,7673248E-001
27/08/2025 01:14:19.1639	-2,6471915E+002	-1,7972486E-001
27/08/2025 01:14:22.5639	-2,6476367E+002	-1,8215661E-001
27/08/2025 01:14:25.9639	-2,6478278E+002	-1,8414097E-001
27/08/2025 01:14:29.3639	-2,6471915E+002	-1,8586542E-001
27/08/2025 01:14:32.7639	-2,6478915E+002	-1,8732323E-001
27/08/2025 01:14:36.1639	-2,6480188E+002	-1,8854083E-001
27/08/2025 01:14:39.5639	-2,6477643E+002	-1,8958357E-001
27/08/2025 01:14:42.9639	-2,6482095E+002	-1,9047984E-001
27/08/2025 01:14:46.3639	-2,6479550E+002	-1,9125596E-001
27/08/2025 01:14:49.7639	-2,6481461E+002	-1,9191608E-001
27/08/2025 01:14:53.1639	-2,6478278E+002	-1,9242838E-001
27/08/2025 01:14:56.5639	-2,6482095E+002	-1,9282146E-001
27/08/2025 01:14:59.9639	-2,6471277E+002	-1,9311993E-001
27/08/2025 01:15:03.3639	-2,6476367E+002	-1,9332817E-001
27/08/2025 01:15:06.7639	-2,6473825E+002	-1,9361021E-001
27/08/2025 01:15:10.1639	-2,6478915E+002	-1,9394073E-001
27/08/2025 01:15:13.5639	-2,6480188E+002	-1,9432107E-001
27/08/2025 01:15:16.9639	-2,6469366E+002	-1,9473301E-001
27/08/2025 01:15:20.3639	-2,6475732E+002	-1,9513814E-001
27/08/2025 01:15:23.7639	-2,6480188E+002	-1,9555709E-001
27/08/2025 01:15:27.1639	-2,6477643E+002	-1,9604436E-001
27/08/2025 01:15:30.5639	-2,6480188E+002	-1,9650821E-001
27/08/2025 01:15:33.9639	-2,6480188E+002	-1,9692089E-001
27/08/2025 01:15:37.3639	-2,6475732E+002	-1,9730693E-001
27/08/2025 01:15:40.7639	-2,6479550E+002	-1,9760346E-001
27/08/2025 01:15:44.1639	-2,6479550E+002	-1,9781667E-001
27/08/2025 01:15:47.5639	-2,6475095E+002	-1,9805036E-001
27/08/2025 01:15:50.9639	-2,6473825E+002	-1,9834134E-001
27/08/2025 01:15:54.2641	2,9160043E+002	7,9688922E-002
27/08/2025 01:15:57.6641	2,9162585E+002	1,1378141E-001
27/08/2025 01:16:01.0641	2,9156223E+002	1,3678312E-001
27/08/2025 01:16:04.4641	2,9163861E+002	1,5420859E-001
27/08/2025 01:16:07.8641	2,9162585E+002	1,6781411E-001
27/08/2025 01:16:11.2641	2,9160043E+002	1,7828929E-001
27/08/2025 01:16:14.6641	2,9160678E+002	1,8629082E-001
27/08/2025 01:16:18.0641	2,9158771E+002	1,9250154E-001
27/08/2025 01:16:21.4641	2,9159409E+002	1,9755623E-001
27/08/2025 01:16:24.8641	2,9153680E+002	2,0176236E-001
27/08/2025 01:16:28.2641	2,9158136E+002	2,0533264E-001
27/08/2025 01:16:31.6641	2,9154315E+002	2,0830627E-001
27/08/2025 01:16:35.0641	2,9159409E+002	2,1076670E-001
27/08/2025 01:16:38.4641	2,9162585E+002	2,1278524E-001
27/08/2025 01:16:41.8641	2,9154315E+002	2,1445179E-001
27/08/2025 01:16:45.2641	2,9152408E+002	2,1584767E-001
27/08/2025 01:16:48.6641	2,9164499E+002	2,1695010E-001
27/08/2025 01:16:52.0641	2,9157498E+002	2,1784273E-001
27/08/2025 01:16:55.4641	2,9159409E+002	2,1845855E-001
27/08/2025 01:16:58.8641	2,9158136E+002	2,1895789E-001
27/08/2025 01:17:02.2641	2,9160678E+002	2,1937671E-001
27/08/2025 01:17:05.6641	2,9161951E+002	2,1976642E-001
27/08/2025 01:17:09.0641	2,9158136E+002	2,2029908E-001
27/08/2025 01:17:12.4641	2,9157498E+002	2,2079059E-001
27/08/2025 01:17:15.8641	2,9156860E+002	2,2131622E-001
27/08/2025 01:17:19.2641	2,9161951E+002	2,2178990E-001
27/08/2025 01:17:22.6641	2,9158136E+002	2,2226739E-001
27/08/2025 01:17:26.0641	2,9158771E+002	2,2277452E-001
27/08/2025 01:17:29.4641	2,9160678E+002	2,2324653E-001
27/08/2025 01:17:32.8641	2,9156223E+002	2,2364368E-001
27/08/2025 01:17:36.2641	2,9165137E+002	2,2403653E-001
27/08/2025 01:17:39.6641	2,9161316E+002	2,2429934E-001
27/08/2025 01:17:43.0641	2,9157498E+002	2,2456628E-001
27/08/2025 01:17:46.4641	2,9160043E+002	2,2497234E-001
27/08/2025 01:17:49.8641	2,9153680E+002	2,2536553E-001
27/08/2025 01:17:53.1645	2,0069122E-001	7,9234459E-002
27/08/2025 01:17:56.5645	7,3414646E-002	5,4482620E-002
27/08/2025 01:17:59.9645	1,6250826E-001	4,0749241E-002
27/08/2025 01:18:03.3645	1,5614443E-001	3,1514324E-002
27/08/2025 01:18:06.7645	1,3068911E-001	2,4883175E-002
27/08/2025 01:18:10.1645	1,3705294E-001	2,0011576E-002
27/08/2025 01:18:13.5645	2,0069122E-001	1,6377032E-002
27/08/2025 01:18:16.9645	1,5614443E-001	1,3653704E-002
27/08/2025 01:18:20.3645	1,6250826E-001	1,1561166E-002
27/08/2025 01:18:23.7645	2,0705505E-001	9,9196127E-003
27/08/2025 01:18:27.1645	1,1159762E-001	8,6458838E-003
27/08/2025 01:18:30.5645	1,7523590E-001	7,6637333E-003
27/08/2025 01:18:33.9645	1,7523590E-001	6,9557023E-003
27/08/2025 01:18:37.3645	1,3068911E-001	6,4263321E-003
27/08/2025 01:18:40.7645	1,1796144E-001	6,0829171E-003
27/08/2025 01:18:44.1645	1,6250826E-001	5,8600227E-003
27/08/2025 01:18:47.5645	9,8869957E-002	5,7200971E-003
27/08/2025 01:18:50.9645	2,3251036E-001	5,6569530E-003
27/08/2025 01:18:54.3645	1,3068911E-001	5,6325435E-003
27/08/2025 01:18:57.7645	1,4978060E-001	5,6407568E-003
27/08/2025 01:19:01.1645	1,3705294E-001	5,6661209E-003
27/08/2025 01:19:04.5645	1,1159762E-001	5,6946566E-003
27/08/2025 01:19:07.9645	2,0069122E-001	5,7346513E-003
27/08/2025 01:19:11.3645	8,6142294E-002	5,7825157E-003
27/08/2025 01:19:14.7645	8,6142294E-002	5,8170096E-003
27/08/2025 01:19:18.1645	1,6250826E-001	5,8714822E-003
27/08/2025 01:19:21.5645	2,0069122E-001	5,9172837E-003
27/08/2025 01:19:24.9645	1,9432738E-001	5,9472704E-003
27/08/2025 01:19:28.3645	1,9432738E-001	5,9837508E-003
27/08/2025 01:19:31.7645	1,3705294E-001	6,0145399E-003
27/08/2025 01:19:35.1645	8,6142294E-002	6,0518607E-003
27/08/2025 01:19:38.5645	1,3705294E-001	6,0790209E-003
27/08/2025 01:19:41.9645	9,8869957E-002	6,1017498E-003
27/08/2025 01:19:45.3645	1,4978060E-001	6,1199325E-003
27/08/2025 01:19:48.7645	1,8159975E-001	6,1374665E-003
27/08/2025 01:19:52.0647	-2,9135178E+002	-1,0701670E-001
27/08/2025 01:19:55.4647	-2,9130722E+002	-1,3772836E-001
27/08/2025 01:19:58.8647	-2,9133902E+002	-1,5547799E-001
27/08/2025 01:20:02.2647	-2,9132629E+002	-1,6820160E-001
27/08/2025 01:20:05.6647	-2,9136447E+002	-1,7772977E-001
27/08/2025 01:20:09.0647	-2,9126266E+002	-1,8498133E-001
27/08/2025 01:20:12.4647	-2,9129449E+002	-1,9055387E-001
27/08/2025 01:20:15.8647	-2,9130084E+002	-1,9487613E-001
27/08/2025 01:20:19.2647	-2,9137088E+002	-1,9837938E-001
27/08/2025 01:20:22.6647	-2,9139630E+002	-2,0134383E-001
27/08/2025 01:20:26.0647	-2,9127539E+002	-2,0378184E-001
27/08/2025 01:20:29.4647	-2,9126266E+002	-2,0591147E-001
27/08/2025 01:20:32.8647	-2,9128812E+002	-2,0768513E-001
27/08/2025 01:20:36.2647	-2,9134540E+002	-2,0914160E-001
27/08/2025 01:20:39.6647	-2,9133902E+002	-2,1047680E-001
27/08/2025 01:20:43.0647	-2,9132629E+002	-2,1156013E-001
27/08/2025 01:20:46.4647	-2,9134540E+002	-2,1243441E-001
27/08/2025 01:20:49.8647	-2,9133902E+002	-2,1314931E-001
27/08/2025 01:20:53.2647	-2,9131360E+002	-2,1363556E-001
27/08/2025 01:20:56.6647	-2,9132629E+002	-2,1398069E-001
27/08/2025 01:21:00.0647	-2,9133267E+002	-2,1440588E-001
27/08/2025 01:21:03.4647	-2,9136447E+002	-2,1480668E-001
27/08/2025 01:21:06.8647	-2,9135812E+002	-2,1529463E-001
27/08/2025 01:21:10.2647	-2,9137723E+002	-2,1585889E-001
27/08/2025 01:21:13.6647	-2,9126904E+002	-2,1633203E-001
27/08/2025 01:21:17.0647	-2,9123083E+002	-2,1688548E-001
27/08/2025 01:21:20.4647	-2,9126904E+002	-2,1746083E-001
27/08/2025 01:21:23.8647	-2,9138358E+002	-2,1798068E-001
27/08/2025 01:21:27.2647	-2,9132629E+002	-2,1855010E-001
27/08/2025 01:21:30.6647	-2,9138358E+002	-2,1897991E-001
27/08/2025 01:21:34.0647	-2,9138995E+002	-2,1929415E-001
27/08/2025 01:21:37.4647	-2,9132629E+002	-2,1958947E-001
27/08/2025 01:21:40.8647	-2,9123721E+002	-2,1981874E-001
27/08/2025 01:21:44.2647	-2,9131360E+002	-2,2012280E-001
27/08/2025 01:21:47.6647	-2,9130084E+002	-2,2060634E-001
27/08/2025 01:21:51.0647	-2,9137723E+002	-2,2108735E-001
27/08/2025 01:21:54.3649	3,1816940E+002	8,8403516E-002
27/08/2025 01:21:57.7649	3,1816302E+002	1,2487745E-001
27/08/2025 01:22:01.1649	3,1817581E+002	1,4986880E-001
27/08/2025 01:22:04.5649	3,1813760E+002	1,6901292E-001
27/08/2025 01:22:07.9649	3,1815671E+002	1,8401223E-001
27/08/2025 01:22:11.3649	3,1820123E+002	1,9562806E-001
27/08/2025 01:22:14.7649	3,1815033E+002	2,0470877E-001
27/08/2025 01:22:18.1649	3,1816940E+002	2,1188113E-001
27/08/2025 01:22:21.5649	3,1816940E+002	2,1785991E-001
27/08/2025 01:22:24.9649	3,1822668E+002	2,2290181E-001
27/08/2025 01:22:28.3649	3,1818851E+002	2,2709174E-001
27/08/2025 01:22:31.7649	3,1816302E+002	2,3060951E-001
27/08/2025 01:22:35.1649	3,1817581E+002	2,3352522E-001
27/08/2025 01:22:38.5649	3,1821399E+002	2,3591799E-001
27/08/2025 01:22:41.9649	3,1817581E+002	2,3789059E-001
27/08/2025 01:22:45.3649	3,1813126E+002	2,3942812E-001
27/08/2025 01:22:48.7649	3,1818851E+002	2,4060497E-001
27/08/2025 01:22:52.1649	3,1813760E+002	2,4154150E-001
27/08/2025 01:22:55.5649	3,1822668E+002	2,4227788E-001
27/08/2025 01:22:58.9649	3,1818851E+002	2,4302630E-001
27/08/2025 01:23:02.3649	3,1822668E+002	2,4371144E-001
27/08/2025 01:23:05.7649	3,1815671E+002	2,4436316E-001
27/08/2025 01:23:09.1649	3,1815033E+002	2,4513797E-001
27/08/2025 01:23:12.5649	3,1813760E+002	2,4576868E-001
27/08/2025 01:23:15.9649	3,1824579E+002	2,4644382E-001
27/08/2025 01:23:19.3649	3,1813126E+002	2,4716023E-001
27/08/2025 01:23:22.7649	3,1822031E+002	2,4777004E-001
27/08/2025 01:23:26.1649	3,1814395E+002	2,4840951E-001
27/08/2025 01:23:29.5649	3,1815033E+002	2,4893448E-001
27/08/2025 01:23:32.9649	3,1813760E+002	2,4929561E-001
27/08/2025 01:23:36.3649	3,1818216E+002	2,4965213E-001
27/08/2025 01:23:39.7649	3,1816940E+002	2,5000456E-001
27/08/2025 01:23:43.1649	3,1816940E+002	2,5042698E-001
27/08/2025 01:23:46.5649	3,1813126E+002	2,5105199E-001
27/08/2025 01:23:49.9649	3,1820761E+002	2,5168768E-001
27/08/2025 01:23:53.2653	1,6887209E-001	8,6255781E-002
27/08/2025 01:23:56.6653	7,3414646E-002	5,9580021E-002
27/08/2025 01:24:00.0653	1,3705294E-001	4,4692170E-002
27/08/2025 01:24:03.4653	1,3705294E-001	3,4650937E-002
27/08/2025 01:24:06.8653	1,2432528E-001	2,7478227E-002
27/08/2025 01:24:10.2653	1,3068911E-001	2,2182271E-002
27/08/2025 01:24:13.6653	7,9778478E-002	1,8240258E-002
27/08/2025 01:24:17.0653	1,7523590E-001	1,5270656E-002
27/08/2025 01:24:20.4653	1,6250826E-001	1,2975506E-002
27/08/2025 01:24:23.8653	1,2432528E-001	1,1178825E-002
27/08/2025 01:24:27.2653	1,0523378E-001	9,7882822E-003
27/08/2025 01:24:30.6653	3,5231672E-002	8,7200291E-003
27/08/2025 01:24:34.0653	1,3705294E-001	7,9407571E-003
27/08/2025 01:24:37.4653	9,2506140E-002	7,3786108E-003
27/08/2025 01:24:40.8653	2,1341887E-001	7,0019625E-003
27/08/2025 01:24:44.2653	7,9778478E-002	6,7646280E-003
27/08/2025 01:24:47.6653	1,1159762E-001	6,6194311E-003
27/08/2025 01:24:51.0653	1,3068911E-001	6,5553323E-003
27/08/2025 01:24:54.4653	1,9432738E-001	6,5295091E-003
27/08/2025 01:24:57.8653	1,0523378E-001	6,5358118E-003
27/08/2025 01:25:01.2653	1,6887209E-001	6,5700007E-003
27/08/2025 01:25:04.6653	1,8796356E-001	6,6075129E-003
27/08/2025 01:25:08.0653	1,4341676E-001	6,6501438E-003
27/08/2025 01:25:11.4653	1,2432528E-001	6,7125238E-003
27/08/2025 01:25:14.8653	7,9778478E-002	6,7501119E-003
27/08/2025 01:25:18.2653	1,9432738E-001	6,8064947E-003
27/08/2025 01:25:21.6653	1,7523590E-001	6,8478654E-003
27/08/2025 01:25:25.0653	1,6250826E-001	6,8883188E-003
27/08/2025 01:25:28.4653	2,1341887E-001	6,9300705E-003
27/08/2025 01:25:31.8653	1,5614443E-001	6,9691488E-003
27/08/2025 01:25:35.2653	2,0705505E-001	6,9983336E-003
27/08/2025 01:25:38.6653	1,1159762E-001	7,0297718E-003
27/08/2025 01:25:42.0653	1,0523378E-001	7,0476872E-003
27/08/2025 01:25:45.4653	1,0523378E-001	7,0745796E-003
27/08/2025 01:25:48.8653	1,5614443E-001	7,0856195E-003
27/08/2025 01:25:52.1655	-3,1784433E+002	-1,1733977E-001
27/08/2025 01:25:55.5655	-3,1779346E+002	-1,5018378E-001
27/08/2025 01:25:58.9655	-3,1779984E+002	-1,6968645E-001
27/08/2025 01:26:02.3655	-3,1794620E+002	-1,8376856E-001
27/08/2025 01:26:05.7655	-3,1779346E+002	-1,9437435E-001
27/08/2025 01:26:09.1655	-3,1786346E+002	-2,0244737E-001
27/08/2025 01:26:12.5655	-3,1785712E+002	-2,0875219E-001
27/08/2025 01:26:15.9655	-3,1793347E+002	-2,1376796E-001
27/08/2025 01:26:19.3655	-3,1781256E+002	-2,1787839E-001
27/08/2025 01:26:22.7655	-3,1787619E+002	-2,2130689E-001
27/08/2025 01:26:26.1655	-3,1785712E+002	-2,2419928E-001
27/08/2025 01:26:29.5655	-3,1779984E+002	-2,2661957E-001
27/08/2025 01:26:32.9655	-3,1790161E+002	-2,2868763E-001
27/08/2025 01:26:36.3655	-3,1782526E+002	-2,3039520E-001
27/08/2025 01:26:39.7655	-3,1782526E+002	-2,3183684E-001
27/08/2025 01:26:43.1655	-3,1786984E+002	-2,3298857E-001
27/08/2025 01:26:46.5655	-3,1781894E+002	-2,3383647E-001
27/08/2025 01:26:49.9655	-3,1780618E+002	-2,3447174E-001
27/08/2025 01:26:53.3655	-3,1783163E+002	-2,3503318E-001
27/08/2025 01:26:56.7655	-3,1777435E+002	-2,3555745E-001
27/08/2025 01:27:00.1655	-3,1788254E+002	-2,3614572E-001
27/08/2025 01:27:03.5655	-3,1785712E+002	-2,3680443E-001
27/08/2025 01:27:06.9655	-3,1779984E+002	-2,3742515E-001
27/08/2025 01:27:10.3655	-3,1785712E+002	-2,3805051E-001
27/08/2025 01:27:13.7655	-3,1789529E+002	-2,3872630E-001
27/08/2025 01:27:17.1655	-3,1790161E+002	-2,3936301E-001
27/08/2025 01:27:20.5655	-3,1785074E+002	-2,4002333E-001
27/08/2025 01:27:23.9655	-3,1782526E+002	-2,4060348E-001
27/08/2025 01:27:27.3655	-3,1789529E+002	-2,4109583E-001
27/08/2025 01:27:30.7655	-3,1783801E+002	-2,4149360E-001
27/08/2025 01:27:34.1655	-3,1781256E+002	-2,4180286E-001
27/08/2025 01:27:37.5655	-3,1789529E+002	-2,4217501E-001
27/08/2025 01:27:40.9655	-3,1783163E+002	-2,4262984E-001
27/08/2025 01:27:44.3655	-3,1781256E+002	-2,4319389E-001
27/08/2025 01:27:47.7655	-3,1783801E+002	-2,4383153E-001
27/08/2025 01:27:51.1655	-3,1782526E+002	-2,4451981E-001
27/08/2025 01:27:51.2657	-3,1785712E+002	-2,4456479E-001