File: data/phase_2a/Sergey/1/8.3/02 polarisation/SN50_C5D1E2_mr2_0,1MFeCN6_in_1M_KCl_3306mL_symmetric_balanced_4_point_PEIS_10mHz_200kHz_10mV_02_CP_C16.txt
time/s	I/mA	<Ewe/V>
27/08/2025 00:03:51.2020	1,6250411E-002	-4,1611660E-003
27/08/2025 00:03:53.5020	1,2432210E-002	-4,1584056E-003
27/08/2025 00:03:55.8020	1,4977678E-002	-4,1533252E-003
27/08/2025 00:03:58.1020	8,6140092E-003	-4,1613467E-003
27/08/2025 00:04:00.4020	5,4321769E-003	-4,1598571E-003
27/08/2025 00:04:02.7020	1,1795843E-002	-4,1627986E-003
27/08/2025 00:04:05.0020	9,8867435E-003	-4,1602012E-003
27/08/2025 00:04:07.3020	1,1795843E-002	-4,1580237E-003
27/08/2025 00:04:09.6020	1,4977678E-002	-4,1665421E-003
27/08/2025 00:04:11.9020	1,1795843E-002	-4,1610412E-003
27/08/2025 00:04:14.2020	8,6140092E-003	-4,1686432E-003
27/08/2025 00:04:16.5020	7,9776440E-003	-4,1666953E-003
27/08/2025 00:04:18.8020	5,4321769E-003	-4,1599334E-003
27/08/2025 00:04:21.1020	9,2503773E-003	-4,1626459E-003
27/08/2025 00:04:23.4020	7,3412773E-003	-4,1685286E-003
27/08/2025 00:04:25.7020	1,3068578E-002	-4,1668094E-003
27/08/2025 00:04:28.0020	1,2432210E-002	-4,1679172E-003
27/08/2025 00:04:30.3020	1,4341311E-002	-4,1704387E-003
27/08/2025 00:04:32.6020	2,2503431E-003	-4,1700564E-003
27/08/2025 00:04:34.9020	4,7958097E-003	-4,1621113E-003
27/08/2025 00:04:37.2020	2,2503431E-003	-4,1739913E-003
27/08/2025 00:04:39.5020	3,4124311E-004	-4,1716988E-003
27/08/2025 00:04:41.8020	8,6140092E-003	-4,1616908E-003
27/08/2025 00:04:44.1020	1,3704944E-002	-4,1677263E-003
27/08/2025 00:04:46.4020	1,0523110E-002	-4,1642501E-003
27/08/2025 00:04:48.7020	5,4321769E-003	-4,1639828E-003
27/08/2025 00:04:51.0020	7,3412773E-003	-4,1629514E-003
27/08/2025 00:04:53.3020	1,1795843E-002	-4,1691018E-003
27/08/2025 00:04:55.6020	1,4341311E-002	-4,1631809E-003
27/08/2025 00:04:57.9020	9,2503773E-003	-4,1651288E-003
27/08/2025 00:05:00.2020	7,9776440E-003	-4,1744877E-003
27/08/2025 00:05:02.5020	1,3704944E-002	-4,1677644E-003
27/08/2025 00:05:04.8020	4,7958097E-003	-4,1640974E-003
27/08/2025 00:05:07.1020	1,0523110E-002	-4,1726539E-003
27/08/2025 00:05:09.4020	1,0523110E-002	-4,1697510E-003
27/08/2025 00:05:11.7020	1,1795843E-002	-4,1642124E-003
27/08/2025 00:05:14.0020	1,0523110E-002	-4,1712788E-003
27/08/2025 00:05:16.3020	1,3704944E-002	-4,1715084E-003
27/08/2025 00:05:18.6020	8,6140092E-003	-4,1635628E-003
27/08/2025 00:05:20.9020	1,0523110E-002	-4,1674208E-003
27/08/2025 00:05:23.2020	9,2503773E-003	-4,1687577E-003
27/08/2025 00:05:25.5020	1,0523110E-002	-4,1687959E-003
27/08/2025 00:05:27.8020	9,2503773E-003	-4,1648997E-003
27/08/2025 00:05:30.1020	1,6886778E-002	-4,1704769E-003
27/08/2025 00:05:32.4020	9,2503773E-003	-4,1678790E-003
27/08/2025 00:05:34.7020	1,3704944E-002	-4,1659693E-003
27/08/2025 00:05:37.0020	4,1594426E-003	-4,1651288E-003
27/08/2025 00:05:39.3020	9,8867435E-003	-4,1710497E-003
27/08/2025 00:05:41.6020	1,2432210E-002	-4,1679940E-003
27/08/2025 00:05:43.9020	4,1594426E-003	-4,1669626E-003
27/08/2025 00:05:46.2020	1,8159511E-002	-4,1715847E-003
27/08/2025 00:05:48.5020	6,7049102E-003	-4,1623018E-003
27/08/2025 00:05:50.8020	1,3704944E-002	-4,1616526E-003
27/08/2025 00:05:53.1020	1,0523110E-002	-4,1669239E-003
27/08/2025 00:05:55.4020	7,9776440E-003	-4,1674972E-003
27/08/2025 00:05:57.7020	9,8867435E-003	-4,1602775E-003
27/08/2025 00:06:00.0020	1,6250411E-002	-4,1659311E-003
27/08/2025 00:06:02.3020	5,4321769E-003	-4,1678026E-003
27/08/2025 00:06:04.6020	1,1159477E-002	-4,1666189E-003
27/08/2025 00:06:06.9020	1,1795843E-002	-4,1635628E-003
27/08/2025 00:06:09.2020	4,1594426E-003	-4,1670389E-003
27/08/2025 00:06:11.5020	1,3068578E-002	-4,1610799E-003
27/08/2025 00:06:13.8020	1,2432210E-002	-4,1610412E-003
27/08/2025 00:06:16.1020	1,6250411E-002	-4,1659693E-003
27/08/2025 00:06:18.4020	8,6140092E-003	-4,1660075E-003
27/08/2025 00:06:20.7020	9,2503773E-003	-4,1587879E-003
27/08/2025 00:06:23.0020	7,3412773E-003	-4,1682990E-003
27/08/2025 00:06:25.3020	1,3068578E-002	-4,1711265E-003
27/08/2025 00:06:27.6020	1,4341311E-002	-4,1610412E-003
27/08/2025 00:06:29.9020	2,2503431E-003	-4,1657020E-003
27/08/2025 00:06:32.2020	9,8867435E-003	-4,1750227E-003
27/08/2025 00:06:34.5020	9,8867435E-003	-4,1647088E-003
27/08/2025 00:06:36.8020	9,8867435E-003	-4,1600484E-003
27/08/2025 00:06:39.1020	7,3412773E-003	-4,1649379E-003
27/08/2025 00:06:41.4020	1,1159477E-002	-4,1617667E-003
27/08/2025 00:06:43.7020	4,7958097E-003	-4,1624545E-003
27/08/2025 00:06:46.0020	9,8867435E-003	-4,1689104E-003
27/08/2025 00:06:48.3020	7,3412773E-003	-4,1689868E-003
27/08/2025 00:06:50.6020	7,3412773E-003	-4,1650906E-003
27/08/2025 00:06:52.9020	9,2503773E-003	-4,1616145E-003
27/08/2025 00:06:55.2020	1,2432210E-002	-4,1737235E-003
27/08/2025 00:06:57.5020	9,8867435E-003	-4,1656257E-003
27/08/2025 00:06:59.8020	3,4124311E-004	-4,1636773E-003
27/08/2025 00:07:02.1020	9,8867435E-003	-4,1700182E-003
27/08/2025 00:07:04.4020	9,8867435E-003	-4,1671153E-003
27/08/2025 00:07:06.7020	1,4341311E-002	-4,1615763E-003
27/08/2025 00:07:09.0020	1,3068578E-002	-4,1679554E-003
27/08/2025 00:07:11.3020	1,1159477E-002	-4,1690250E-003
27/08/2025 00:07:13.6020	1,6250411E-002	-4,1644792E-003
27/08/2025 00:07:15.9020	1,0523110E-002	-4,1640974E-003
27/08/2025 00:07:18.2020	1,3704944E-002	-4,1663893E-003
27/08/2025 00:07:20.5020	4,7958097E-003	-4,1643647E-003
27/08/2025 00:07:22.8020	6,7049102E-003	-4,1650143E-003
27/08/2025 00:07:25.1020	1,1159477E-002	-4,1649761E-003
27/08/2025 00:07:27.4020	1,1159477E-002	-4,1650143E-003
27/08/2025 00:07:29.7020	1,4341311E-002	-4,1631423E-003
27/08/2025 00:07:32.0020	6,0685435E-003	-4,1696364E-003
27/08/2025 00:07:34.3020	6,0685435E-003	-4,1600098E-003
27/08/2025 00:07:36.6020	1,1159477E-002	-4,1614235E-003
27/08/2025 00:07:38.9020	1,4341311E-002	-4,1699801E-003
27/08/2025 00:07:41.2020	9,2503773E-003	-4,1656638E-003
27/08/2025 00:07:43.5020	1,4977678E-002	-4,1634096E-003
27/08/2025 00:07:45.8020	7,9776440E-003	-4,1639446E-003
27/08/2025 00:07:48.1020	2,2503431E-003	-4,1674972E-003
27/08/2025 00:07:50.4020	9,2503773E-003	-4,1670389E-003
27/08/2025 00:07:52.7020	1,6139771E-003	-4,1666189E-003
27/08/2025 00:07:55.0020	1,2432210E-002	-4,1620345E-003
27/08/2025 00:07:57.3020	1,1159477E-002	-4,1670389E-003
27/08/2025 00:07:59.6020	6,0685435E-003	-4,1624163E-003
27/08/2025 00:08:01.9020	9,8867435E-003	-4,1667330E-003
27/08/2025 00:08:04.2020	1,6886778E-002	-4,1675735E-003
27/08/2025 00:08:06.5020	1,4341311E-002	-4,1636392E-003
27/08/2025 00:08:08.8020	1,5614044E-002	-4,1677263E-003
27/08/2025 00:08:11.1020	1,1159477E-002	-4,1652434E-003
27/08/2025 00:08:13.4020	1,0523110E-002	-4,1656638E-003
27/08/2025 00:08:15.7020	9,8867435E-003	-4,1651288E-003
27/08/2025 00:08:18.0020	4,1594426E-003	-4,1733417E-003
27/08/2025 00:08:20.3020	1,3704944E-002	-4,1682990E-003
27/08/2025 00:08:22.6020	8,6140092E-003	-4,1602012E-003
27/08/2025 00:08:24.9020	4,7958097E-003	-4,1693691E-003
27/08/2025 00:08:27.2020	2,8867100E-003	-4,1739149E-003
27/08/2025 00:08:29.5020	7,3412773E-003	-4,1681468E-003
27/08/2025 00:08:31.8020	1,0523110E-002	-4,1657398E-003
27/08/2025 00:08:34.1020	2,8867100E-003	-4,1724248E-003
27/08/2025 00:08:36.4020	4,1594426E-003	-4,1659693E-003
27/08/2025 00:08:38.7020	1,6250411E-002	-4,1662361E-003
27/08/2025 00:08:41.0020	7,3412773E-003	-4,1750227E-003
27/08/2025 00:08:43.3020	6,7049102E-003	-4,1696741E-003
27/08/2025 00:08:45.6020	4,1594426E-003	-4,1658925E-003
27/08/2025 00:08:47.9020	1,2432210E-002	-4,1684522E-003
27/08/2025 00:08:50.2020	1,0523110E-002	-4,1691400E-003
27/08/2025 00:08:52.5020	6,7049102E-003	-4,1599334E-003
27/08/2025 00:08:54.8020	7,9776440E-003	-4,1656638E-003
27/08/2025 00:08:57.1020	9,8867435E-003	-4,1714702E-003
27/08/2025 00:08:59.4020	1,8159511E-002	-4,1654343E-003
27/08/2025 00:09:01.7020	1,3068578E-002	-4,1678026E-003
27/08/2025 00:09:04.0020	6,7049102E-003	-4,1775438E-003
27/08/2025 00:09:06.3020	4,7958097E-003	-4,1648229E-003
27/08/2025 00:09:08.6020	9,2503773E-003	-4,1671153E-003
27/08/2025 00:09:10.9020	7,9776440E-003	-4,1717370E-003
27/08/2025 00:09:13.2020	1,4341311E-002	-4,1737617E-003
27/08/2025 00:09:15.5020	1,8795876E-002	-4,1642501E-003
27/08/2025 00:09:17.8020	5,4321769E-003	-4,1679940E-003
27/08/2025 00:09:20.1020	1,6886778E-002	-4,1740295E-003
27/08/2025 00:09:22.4020	1,1795843E-002	-4,1675353E-003
27/08/2025 00:09:24.7020	5,4321769E-003	-4,1682227E-003
27/08/2025 00:09:27.0020	9,2503773E-003	-4,1718138E-003
27/08/2025 00:09:29.3020	1,2432210E-002	-4,1703237E-003
27/08/2025 00:09:31.6020	6,0685435E-003	-4,1647465E-003
27/08/2025 00:09:33.9020	1,4341311E-002	-4,1719284E-003
27/08/2025 00:09:36.2020	1,3704944E-002	-4,1726921E-003
27/08/2025 00:09:38.5020	7,9776440E-003	-4,1651670E-003
27/08/2025 00:09:40.8020	7,3412773E-003	-4,1673444E-003
27/08/2025 00:09:43.1020	7,9776440E-003	-4,1746786E-003
27/08/2025 00:09:45.4020	8,6140092E-003	-4,1653579E-003
27/08/2025 00:09:47.7020	1,5614044E-002	-4,1681086E-003
27/08/2025 00:09:50.0020	7,9776440E-003	-4,1746786E-003
27/08/2025 00:09:52.3020	7,9776440E-003	-4,1715465E-003
27/08/2025 00:09:54.6020	1,5614044E-002	-4,1629514E-003
27/08/2025 00:09:56.9020	7,3412773E-003	-4,1704387E-003
27/08/2025 00:09:59.2020	9,2503773E-003	-4,1742199E-003
27/08/2025 00:10:01.5020	9,8867435E-003	-4,1658925E-003
27/08/2025 00:10:03.8020	1,2432210E-002	-4,1712788E-003
27/08/2025 00:10:06.1020	4,1594426E-003	-4,1695600E-003
27/08/2025 00:10:08.4020	1,5614044E-002	-4,1679940E-003
27/08/2025 00:10:10.7020	9,8867435E-003	-4,1692541E-003
27/08/2025 00:10:13.0020	1,0523110E-002	-4,1737235E-003
27/08/2025 00:10:15.3020	1,3068578E-002	-4,1689868E-003
27/08/2025 00:10:17.6020	5,4321769E-003	-4,1670008E-003
27/08/2025 00:10:19.9020	2,8867100E-003	-4,1677644E-003
27/08/2025 00:10:22.2020	2,2503431E-003	-4,1688341E-003
27/08/2025 00:10:24.5020	1,4341311E-002	-4,1618054E-003
27/08/2025 00:10:26.8020	1,4977678E-002	-4,1628368E-003
27/08/2025 00:10:29.1020	7,9776440E-003	-4,1729598E-003
27/08/2025 00:10:31.4020	4,1594426E-003	-4,1664275E-003
27/08/2025 00:10:33.7020	1,1795843E-002	-4,1617677E-003
27/08/2025 00:10:36.0020	1,2432210E-002	-4,1681849E-003
27/08/2025 00:10:38.3020	4,1594426E-003	-4,1681468E-003
27/08/2025 00:10:40.6020	1,7523142E-002	-4,1614999E-003
27/08/2025 00:10:42.9020	7,3412773E-003	-4,1676885E-003
27/08/2025 00:10:45.2020	1,4977678E-002	-4,1620345E-003
27/08/2025 00:10:47.5020	4,7958097E-003	-4,1657779E-003
27/08/2025 00:10:49.8020	1,2432210E-002	-4,1699419E-003
27/08/2025 00:10:52.1020	7,9776440E-003	-4,1711265E-003
27/08/2025 00:10:54.4020	1,6886778E-002	-4,1655875E-003
27/08/2025 00:10:56.7020	4,7958097E-003	-4,1609267E-003
27/08/2025 00:10:59.0020	1,3704944E-002	-4,1699419E-003
27/08/2025 00:11:01.3020	1,6886778E-002	-4,1638683E-003
27/08/2025 00:11:03.6020	1,1159477E-002	-4,1663893E-003
27/08/2025 00:11:05.9020	9,8867435E-003	-4,1653961E-003
27/08/2025 00:11:08.2020	1,3068578E-002	-4,1659311E-003
27/08/2025 00:11:10.5020	2,0068610E-002	-4,1715465E-003
27/08/2025 00:11:12.8020	6,0685435E-003	-4,1682227E-003
27/08/2025 00:11:15.1020	1,0523110E-002	-4,1757864E-003
27/08/2025 00:11:17.4020	1,1795843E-002	-4,1666953E-003
27/08/2025 00:11:19.7020	1,2432210E-002	-4,1667330E-003
27/08/2025 00:11:22.0020	8,6140092E-003	-4,1737617E-003
27/08/2025 00:11:24.3020	1,7523142E-002	-4,1659693E-003
27/08/2025 00:11:26.6020	1,4341311E-002	-4,1657398E-003
27/08/2025 00:11:28.9020	1,3704944E-002	-4,1747931E-003
27/08/2025 00:11:31.2020	7,3412773E-003	-4,1671153E-003
27/08/2025 00:11:33.5020	7,3412773E-003	-4,1662748E-003
27/08/2025 00:11:35.8020	8,6140092E-003	-4,1733035E-003
27/08/2025 00:11:38.1020	3,5230771E-003	-4,1744877E-003
27/08/2025 00:11:40.4020	7,3412773E-003	-4,1662361E-003
27/08/2025 00:11:42.7020	9,2503773E-003	-4,1680704E-003
27/08/2025 00:11:45.0020	6,0685435E-003	-4,1732271E-003
27/08/2025 00:11:47.3020	1,1795843E-002	-4,1729598E-003
27/08/2025 00:11:49.6020	7,3412773E-003	-4,1736094E-003
27/08/2025 00:11:51.9020	1,3068578E-002	-4,1707437E-003
27/08/2025 00:11:54.2020	1,1159477E-002	-4,1687195E-003
27/08/2025 00:11:56.5020	9,2503773E-003	-4,1697510E-003
27/08/2025 00:11:58.8020	7,9776440E-003	-4,1760923E-003
27/08/2025 00:12:01.1020	1,1159477E-002	-4,1704387E-003
27/08/2025 00:12:03.4020	1,1159477E-002	-4,1681849E-003
27/08/2025 00:12:05.7020	5,4321769E-003	-4,1705533E-003
27/08/2025 00:12:08.0020	6,0685435E-003	-4,1706297E-003
27/08/2025 00:12:10.3020	1,4977678E-002	-4,1672294E-003
27/08/2025 00:12:12.6020	1,3068578E-002	-4,1714315E-003
27/08/2025 00:12:14.9020	1,3068578E-002	-4,1642501E-003
27/08/2025 00:12:17.2020	7,9776440E-003	-4,1684522E-003
27/08/2025 00:12:19.5020	8,6140092E-003	-4,1684140E-003
27/08/2025 00:12:21.8020	1,3704944E-002	-4,1765124E-003
27/08/2025 00:12:24.1020	2,0068610E-002	-4,1652815E-003
27/08/2025 00:12:26.4020	8,6140092E-003	-4,1621113E-003
27/08/2025 00:12:28.7020	9,2503773E-003	-4,1716229E-003
27/08/2025 00:12:31.0020	7,3412773E-003	-4,1695600E-003
27/08/2025 00:12:33.3020	1,0523110E-002	-4,1657020E-003
27/08/2025 00:12:35.6020	1,6250411E-002	-4,1671535E-003
27/08/2025 00:12:37.9020	2,8867100E-003	-4,1695982E-003
27/08/2025 00:12:40.2020	-2,2042233E-003	-4,1665421E-003
27/08/2025 00:12:42.5020	3,5230771E-003	-4,1661602E-003
27/08/2025 00:12:44.8020	8,6140092E-003	-4,1723484E-003
27/08/2025 00:12:47.1020	7,9776440E-003	-4,1696364E-003
27/08/2025 00:12:49.4020	1,3068578E-002	-4,1670389E-003
27/08/2025 00:12:51.7020	8,6140092E-003	-4,1660839E-003
27/08/2025 00:12:54.0020	6,7049102E-003	-4,1726162E-003
27/08/2025 00:12:56.3020	7,9776440E-003	-4,1590170E-003
27/08/2025 00:12:58.6020	1,1159477E-002	-4,1689104E-003
27/08/2025 00:13:00.9020	9,8867435E-003	-4,1728835E-003
27/08/2025 00:13:03.2020	1,4341311E-002	-4,1621877E-003
27/08/2025 00:13:05.5020	1,6886778E-002	-4,1673444E-003
27/08/2025 00:13:07.8020	1,1795843E-002	-4,1657398E-003
27/08/2025 00:13:10.1020	9,8867435E-003	-4,1666953E-003
27/08/2025 00:13:12.4020	1,0523110E-002	-4,1622259E-003
27/08/2025 00:13:14.7020	1,4977678E-002	-4,1696364E-003
27/08/2025 00:13:17.0020	1,3704944E-002	-4,1675353E-003
27/08/2025 00:13:19.3020	1,0523110E-002	-4,1571450E-003
27/08/2025 00:13:21.6020	1,1795843E-002	-4,1611944E-003
27/08/2025 00:13:23.9020	9,2503773E-003	-4,1724630E-003
27/08/2025 00:13:26.2020	1,1159477E-002	-4,1674972E-003
27/08/2025 00:13:28.5020	1,3068578E-002	-4,1707437E-003
27/08/2025 00:13:30.8020	7,9776440E-003	-4,1712024E-003
27/08/2025 00:13:33.1020	8,6140092E-003	-4,1663893E-003
27/08/2025 00:13:35.4020	1,1159477E-002	-4,1652434E-003
27/08/2025 00:13:37.7020	5,4321769E-003	-4,1663893E-003
27/08/2025 00:13:40.0020	4,7958097E-003	-4,1620345E-003
27/08/2025 00:13:42.3020	9,8867435E-003	-4,1614617E-003
27/08/2025 00:13:44.6020	7,3412773E-003	-4,1632568E-003
27/08/2025 00:13:46.9020	1,1795843E-002	-4,1685668E-003
27/08/2025 00:13:49.2020	2,2503431E-003	-4,1578324E-003
27/08/2025 00:13:51.4546	2,6511377E+001	5,8901622E-003
27/08/2025 00:13:53.7546	2,6510742E+001	8,3695101E-003
27/08/2025 00:13:56.0546	2,6503107E+001	9,7064199E-003
27/08/2025 00:13:58.3546	2,6513287E+001	1,0701254E-002
27/08/2025 00:14:00.6546	2,6509470E+001	1,1378495E-002
27/08/2025 00:14:02.9546	2,6510105E+001	1,1956493E-002
27/08/2025 00:14:05.2546	2,6512012E+001	1,2440138E-002
27/08/2025 00:14:07.5546	2,6502468E+001	1,2772476E-002
27/08/2025 00:14:09.8546	2,6512651E+001	1,3102750E-002
27/08/2025 00:14:12.1546	2,6511377E+001	1,3363921E-002
27/08/2025 00:14:14.4546	2,6510742E+001	1,3523711E-002
27/08/2025 00:14:16.7546	2,6508196E+001	1,3731783E-002
27/08/2025 00:14:19.0546	2,6506924E+001	1,3882557E-002
27/08/2025 00:14:21.3546	2,6514559E+001	1,3975726E-002
27/08/2025 00:14:23.6546	2,6510742E+001	1,4126959E-002
27/08/2025 00:14:25.9546	2,6516468E+001	1,4198049E-002
27/08/2025 00:14:28.2546	2,6512651E+001	1,4261650E-002
27/08/2025 00:14:30.5546	2,6510742E+001	1,4368954E-002
27/08/2025 00:14:32.8546	2,6511377E+001	1,4400545E-002
27/08/2025 00:14:35.1546	2,6513287E+001	1,4448753E-002
27/08/2025 00:14:37.4546	2,6504377E+001	1,4522401E-002
27/08/2025 00:14:39.7546	2,6508196E+001	1,4527979E-002
27/08/2025 00:14:42.0546	2,6506285E+001	1,4577944E-002
27/08/2025 00:14:44.3546	2,6509470E+001	1,4621147E-002
27/08/2025 00:14:46.6546	2,6511377E+001	1,4613165E-002
27/08/2025 00:14:48.9546	2,6517105E+001	1,4670883E-002
27/08/2025 00:14:51.2546	2,6505014E+001	1,4681236E-002
27/08/2025 00:14:53.5546	2,6513287E+001	1,4669584E-002
27/08/2025 00:14:55.8546	2,6510105E+001	1,4738306E-002
27/08/2025 00:14:58.1546	2,6510742E+001	1,4730284E-002
27/08/2025 00:15:00.4546	2,6511377E+001	1,4724784E-002
27/08/2025 00:15:02.7546	2,6502468E+001	1,4779944E-002
27/08/2025 00:15:05.0546	2,6510742E+001	1,4762754E-002
27/08/2025 00:15:07.3546	2,6511377E+001	1,4772265E-002
27/08/2025 00:15:09.6546	2,6507559E+001	1,4818487E-002
27/08/2025 00:15:11.9546	2,6508831E+001	1,4799387E-002
27/08/2025 00:15:14.2546	2,6513922E+001	1,4832697E-002
27/08/2025 00:15:16.5546	2,6506924E+001	1,4857298E-002
27/08/2025 00:15:18.8546	2,6503742E+001	1,4836440E-002
27/08/2025 00:15:21.1546	2,6513922E+001	1,4895345E-002
27/08/2025 00:15:23.4546	2,6506285E+001	1,4896032E-002
27/08/2025 00:15:25.7546	2,6509470E+001	1,4888469E-002
27/08/2025 00:15:28.0546	2,6512651E+001	1,4948098E-002
27/08/2025 00:15:30.3546	2,6510105E+001	1,4945501E-002
27/08/2025 00:15:32.6546	2,6513922E+001	1,4942598E-002
27/08/2025 00:15:34.9546	2,6508831E+001	1,5000737E-002
27/08/2025 00:15:37.2546	2,6513922E+001	1,4983166E-002
27/08/2025 00:15:39.5546	2,6512651E+001	1,5004252E-002
27/08/2025 00:15:41.8546	2,6514559E+001	1,5046310E-002
27/08/2025 00:15:44.1546	2,6504377E+001	1,5031832E-002
27/08/2025 00:15:46.4546	2,6515194E+001	1,5067281E-002
27/08/2025 00:15:48.7546	2,6508196E+001	1,5095472E-002
27/08/2025 00:15:51.0546	2,6517105E+001	1,5092531E-002
27/08/2025 00:15:53.2548	1,4341311E-002	2,9728936E-003
27/08/2025 00:15:55.5548	4,7958097E-003	1,5218041E-003
27/08/2025 00:15:57.8548	7,9776440E-003	5,2322738E-004
27/08/2025 00:16:00.1548	1,2432210E-002	-2,2029034E-004
27/08/2025 00:16:02.4548	6,0685435E-003	-7,9328491E-004
27/08/2025 00:16:04.7548	1,1159477E-002	-1,2518333E-003
27/08/2025 00:16:07.0548	1,6250411E-002	-1,6216823E-003
27/08/2025 00:16:09.3548	9,2503773E-003	-1,9257133E-003
27/08/2025 00:16:11.6548	6,7049102E-003	-2,1628565E-003
27/08/2025 00:16:13.9548	1,1159477E-002	-2,3600431E-003
27/08/2025 00:16:16.2548	8,6140092E-003	-2,5177693E-003
27/08/2025 00:16:18.5548	7,9776440E-003	-2,6562430E-003
27/08/2025 00:16:20.8548	6,0685435E-003	-2,7690465E-003
27/08/2025 00:16:23.1548	1,0523110E-002	-2,8621010E-003
27/08/2025 00:16:25.4548	9,8867435E-003	-2,9346803E-003
27/08/2025 00:16:27.7548	6,0685435E-003	-3,0110411E-003
27/08/2025 00:16:30.0548	1,5614044E-002	-3,0636804E-003
27/08/2025 00:16:32.3548	2,8867100E-003	-3,0978308E-003
27/08/2025 00:16:34.6548	6,7049102E-003	-3,1357631E-003
27/08/2025 00:16:36.9548	7,3412773E-003	-3,1672397E-003
27/08/2025 00:16:39.2548	8,6140092E-003	-3,1758344E-003
27/08/2025 00:16:41.5548	8,6140092E-003	-3,1938648E-003
27/08/2025 00:16:43.8548	2,8867100E-003	-3,2020013E-003
27/08/2025 00:16:46.1548	1,0523110E-002	-3,2137285E-003
27/08/2025 00:16:48.4548	3,5230771E-003	-3,2132701E-003
27/08/2025 00:16:50.7548	1,4977678E-002	-3,2187325E-003
27/08/2025 00:16:53.0548	9,2503773E-003	-3,2147982E-003
27/08/2025 00:16:55.3548	1,4341311E-002	-3,2105579E-003
27/08/2025 00:16:57.6548	1,1159477E-002	-3,2159060E-003
27/08/2025 00:16:59.9548	9,7761012E-004	-3,2173574E-003
27/08/2025 00:17:02.2548	1,1795843E-002	-3,2080370E-003
27/08/2025 00:17:04.5548	9,8867435E-003	-3,2015047E-003
27/08/2025 00:17:06.8548	2,2503431E-003	-3,2096412E-003
27/08/2025 00:17:09.1548	1,1159477E-002	-3,2037585E-003
27/08/2025 00:17:11.4548	6,7049102E-003	-3,1999005E-003
27/08/2025 00:17:13.7548	4,1594426E-003	-3,2059741E-003
27/08/2025 00:17:16.0548	1,4977678E-002	-3,1988306E-003
27/08/2025 00:17:18.3548	1,6250411E-002	-3,1874089E-003
27/08/2025 00:17:20.6548	7,9776440E-003	-3,1863775E-003
27/08/2025 00:17:22.9548	7,3412773E-003	-3,1953163E-003
27/08/2025 00:17:25.2548	1,7523142E-002	-3,1870652E-003
27/08/2025 00:17:27.5548	5,4321769E-003	-3,1814498E-003
27/08/2025 00:17:29.8548	1,4977678E-002	-3,1911908E-003
27/08/2025 00:17:32.1548	9,2503773E-003	-3,1842003E-003
27/08/2025 00:17:34.4548	9,8867435E-003	-3,1774007E-003
27/08/2025 00:17:36.7548	7,9776440E-003	-3,1881731E-003
27/08/2025 00:17:39.0548	1,4341311E-002	-3,1851172E-003
27/08/2025 00:17:41.3548	1,1795843E-002	-3,1691496E-003
27/08/2025 00:17:43.6548	7,9776440E-003	-3,1769425E-003
27/08/2025 00:17:45.9548	1,2432210E-002	-3,1761401E-003
27/08/2025 00:17:48.2548	2,8867100E-003	-3,1720910E-003
27/08/2025 00:17:50.5548	1,3704944E-002	-3,1697990E-003
27/08/2025 00:17:52.7550	-2,6480146E+001	-1,4870387E-002
27/08/2025 00:17:55.0550	-2,6473148E+001	-1,6471639E-002
27/08/2025 00:17:57.3550	-2,6482054E+001	-1,7578589E-002
27/08/2025 00:17:59.6550	-2,6482054E+001	-1,8414205E-002
27/08/2025 00:18:01.9550	-2,6485874E+001	-1,9010501E-002
27/08/2025 00:18:04.2550	-2,6480146E+001	-1,9533455E-002
27/08/2025 00:18:06.5550	-2,6477600E+001	-1,9958502E-002
27/08/2025 00:18:08.8550	-2,6478872E+001	-2,0248476E-002
27/08/2025 00:18:11.1550	-2,6478237E+001	-2,0564539E-002
27/08/2025 00:18:13.4550	-2,6490965E+001	-2,0776395E-002
27/08/2025 00:18:15.7550	-2,6480783E+001	-2,0940155E-002
27/08/2025 00:18:18.0550	-2,6478872E+001	-2,1139979E-002
27/08/2025 00:18:20.3550	-2,6486509E+001	-2,1260193E-002
27/08/2025 00:18:22.6550	-2,6477600E+001	-2,1362301E-002
27/08/2025 00:18:24.9550	-2,6479511E+001	-2,1501424E-002
27/08/2025 00:18:27.2550	-2,6471237E+001	-2,1563917E-002
27/08/2025 00:18:29.5550	-2,6485874E+001	-2,1642495E-002
27/08/2025 00:18:31.8550	-2,6492237E+001	-2,1714691E-002
27/08/2025 00:18:34.1550	-2,6485874E+001	-2,1747811E-002
27/08/2025 00:18:36.4550	-2,6483963E+001	-2,1810651E-002
27/08/2025 00:18:38.7550	-2,6489691E+001	-2,1842280E-002
27/08/2025 00:18:41.0550	-2,6476965E+001	-2,1852439E-002
27/08/2025 00:18:43.3550	-2,6486509E+001	-2,1931970E-002
27/08/2025 00:18:45.6550	-2,6489056E+001	-2,1931132E-002
27/08/2025 00:18:47.9550	-2,6483328E+001	-2,1933805E-002
27/08/2025 00:18:50.2550	-2,6480146E+001	-2,2012765E-002
27/08/2025 00:18:52.5550	-2,6480783E+001	-2,1986559E-002
27/08/2025 00:18:54.8550	-2,6486509E+001	-2,2000005E-002
27/08/2025 00:18:57.1550	-2,6477600E+001	-2,2062002E-002
27/08/2025 00:18:59.4550	-2,6480146E+001	-2,2043934E-002
27/08/2025 00:19:01.7550	-2,6485874E+001	-2,2064487E-002
27/08/2025 00:19:04.0550	-2,6489691E+001	-2,2103030E-002
27/08/2025 00:19:06.3550	-2,6484600E+001	-2,2086298E-002
27/08/2025 00:19:08.6550	-2,6484600E+001	-2,2127017E-002
27/08/2025 00:19:10.9550	-2,6482693E+001	-2,2142412E-002
27/08/2025 00:19:13.2550	-2,6478872E+001	-2,2130035E-002
27/08/2025 00:19:15.5550	-2,6480783E+001	-2,2177404E-002
27/08/2025 00:19:17.8550	-2,6480146E+001	-2,2175953E-002
27/08/2025 00:19:20.1550	-2,6479511E+001	-2,2175226E-002
27/08/2025 00:19:22.4550	-2,6480783E+001	-2,2237951E-002
27/08/2025 00:19:24.7550	-2,6486509E+001	-2,2214726E-002
27/08/2025 00:19:27.0550	-2,6473148E+001	-2,2230959E-002
27/08/2025 00:19:29.3550	-2,6485874E+001	-2,2278976E-002
27/08/2025 00:19:31.6550	-2,6485235E+001	-2,2263812E-002
27/08/2025 00:19:33.9550	-2,6484600E+001	-2,2291545E-002
27/08/2025 00:19:36.2550	-2,6485874E+001	-2,2323135E-002
27/08/2025 00:19:38.5550	-2,6481419E+001	-2,2306748E-002
27/08/2025 00:19:40.8550	-2,6485235E+001	-2,2345558E-002
27/08/2025 00:19:43.1550	-2,6482054E+001	-2,2370465E-002
27/08/2025 00:19:45.4550	-2,6482693E+001	-2,2354688E-002
27/08/2025 00:19:47.7550	-2,6484600E+001	-2,2408780E-002
27/08/2025 00:19:50.0550	-2,6489691E+001	-2,2415578E-002
27/08/2025 00:19:52.2552	5,3018593E+001	1,1046922E-002
27/08/2025 00:19:54.5552	5,3016052E+001	1,6716780E-002
27/08/2025 00:19:56.8552	5,3015415E+001	2,0204712E-002
27/08/2025 00:19:59.1552	5,3014145E+001	2,2713931E-002
27/08/2025 00:20:01.4552	5,3016052E+001	2,4728084E-002
27/08/2025 00:20:03.7552	5,3019230E+001	2,6264627E-002
27/08/2025 00:20:06.0552	5,3017323E+001	2,7483385E-002
27/08/2025 00:20:08.3552	5,3012230E+001	2,8571961E-002
27/08/2025 00:20:10.6552	5,3008415E+001	2,9366285E-002
27/08/2025 00:20:12.9552	5,3016685E+001	3,0015182E-002
27/08/2025 00:20:15.2552	5,3019230E+001	3,0680200E-002
27/08/2025 00:20:17.5552	5,3018593E+001	3,1076023E-002
27/08/2025 00:20:19.8552	5,3015415E+001	3,1484265E-002
27/08/2025 00:20:22.1552	5,3017960E+001	3,1892464E-002
27/08/2025 00:20:24.4552	5,3017323E+001	3,2113716E-002
27/08/2025 00:20:26.7552	5,3008415E+001	3,2383446E-002
27/08/2025 00:20:29.0552	5,3013508E+001	3,2642245E-002
27/08/2025 00:20:31.3552	5,3010323E+001	3,2746721E-002
27/08/2025 00:20:33.6552	5,3010323E+001	3,2965720E-002
27/08/2025 00:20:35.9552	5,3017323E+001	3,3083454E-002
27/08/2025 00:20:38.2552	5,3017323E+001	3,3131432E-002
27/08/2025 00:20:40.5552	5,3018593E+001	3,3311084E-002
27/08/2025 00:20:42.8552	5,3010323E+001	3,3348594E-002
27/08/2025 00:20:45.1552	5,3017323E+001	3,3359483E-002
27/08/2025 00:20:47.4552	5,3015415E+001	3,3511098E-002
27/08/2025 00:20:49.7552	5,3007137E+001	3,3502884E-002
27/08/2025 00:20:52.0552	5,3012867E+001	3,3526607E-002
27/08/2025 00:20:54.3552	5,3015415E+001	3,3637311E-002
27/08/2025 00:20:56.6552	5,3012230E+001	3,3609044E-002
27/08/2025 00:20:58.9552	5,3013508E+001	3,3661988E-002
27/08/2025 00:21:01.2552	5,3019871E+001	3,3727769E-002
27/08/2025 00:21:03.5552	5,3016685E+001	3,3697780E-002
27/08/2025 00:21:05.8552	5,3012867E+001	3,3787776E-002
27/08/2025 00:21:08.1552	5,3025593E+001	3,3794045E-002
27/08/2025 00:21:10.4552	5,3016685E+001	3,3786558E-002
27/08/2025 00:21:12.7552	5,3017960E+001	3,3893589E-002
27/08/2025 00:21:15.0552	5,3023048E+001	3,3866812E-002
27/08/2025 00:21:17.3552	5,3019871E+001	3,3888396E-002
27/08/2025 00:21:19.6552	5,3013508E+001	3,4004677E-002
27/08/2025 00:21:21.9552	5,3014778E+001	3,3941112E-002
27/08/2025 00:21:24.2552	5,3016052E+001	3,3983324E-002
27/08/2025 00:21:26.5552	5,3014145E+001	3,4087989E-002
27/08/2025 00:21:28.8552	5,3014778E+001	3,4031760E-002
27/08/2025 00:21:31.1552	5,3010960E+001	3,4104872E-002
27/08/2025 00:21:33.4552	5,3007137E+001	3,4179743E-002
27/08/2025 00:21:35.7552	5,3018593E+001	3,4126148E-002
27/08/2025 00:21:38.0552	5,3012230E+001	3,4233034E-002
27/08/2025 00:21:40.3552	5,3014145E+001	3,4257594E-002
27/08/2025 00:21:42.6552	5,3022411E+001	3,4226388E-002
27/08/2025 00:21:44.9552	5,3016685E+001	3,4343924E-002
27/08/2025 00:21:47.2552	5,3013508E+001	3,4348089E-002
27/08/2025 00:21:49.5552	5,3016685E+001	3,4338616E-002
27/08/2025 00:21:51.7556	1,3704944E-002	1,3354792E-002
27/08/2025 00:21:54.0556	1,0523110E-002	8,9870440E-003
27/08/2025 00:21:56.3556	7,9776440E-003	6,4503592E-003
27/08/2025 00:21:58.6556	1,4341311E-002	4,6675825E-003
27/08/2025 00:22:00.9556	1,8159511E-002	3,3386934E-003
27/08/2025 00:22:03.2556	1,6139771E-003	2,2506914E-003
27/08/2025 00:22:05.5556	1,1159477E-002	1,3970823E-003
27/08/2025 00:22:07.8556	1,1159477E-002	7,1991736E-004
27/08/2025 00:22:10.1556	9,2503773E-003	1,4841255E-004
27/08/2025 00:22:12.4556	7,9776440E-003	-3,0627771E-004
27/08/2025 00:22:14.7556	9,2503773E-003	-6,6650030E-004
27/08/2025 00:22:17.0556	6,7049102E-003	-9,7427476E-004
27/08/2025 00:22:19.3556	1,3704944E-002	-1,2286844E-003
27/08/2025 00:22:21.6556	1,4341311E-002	-1,4384004E-003
27/08/2025 00:22:23.9556	1,4341311E-002	-1,6140805E-003
27/08/2025 00:22:26.2556	1,2432210E-002	-1,7628300E-003
27/08/2025 00:22:28.5556	1,1795843E-002	-1,8922884E-003
27/08/2025 00:22:30.8556	1,3068578E-002	-1,9875586E-003
27/08/2025 00:22:33.1556	1,0523110E-002	-2,0699550E-003
27/08/2025 00:22:35.4556	3,5230771E-003	-2,1274074E-003
27/08/2025 00:22:37.7556	1,2432210E-002	-2,1736289E-003
27/08/2025 00:22:40.0556	9,8867435E-003	-2,2036920E-003
27/08/2025 00:22:42.3556	1,5614044E-002	-2,2374603E-003
27/08/2025 00:22:44.6556	7,9776440E-003	-2,2578209E-003
27/08/2025 00:22:46.9556	1,0523110E-002	-2,2603038E-003
27/08/2025 00:22:49.2556	8,6140092E-003	-2,2765768E-003
27/08/2025 00:22:51.5556	9,8867435E-003	-2,2693572E-003
27/08/2025 00:22:53.8556	9,2503773E-003	-2,2722220E-003
27/08/2025 00:22:56.1556	1,1159477E-002	-2,2718019E-003
27/08/2025 00:22:58.4556	1,1795843E-002	-2,2640855E-003
27/08/2025 00:23:00.7556	7,9776440E-003	-2,2607241E-003
27/08/2025 00:23:03.0556	1,3704944E-002	-2,2588903E-003
27/08/2025 00:23:05.3556	9,2503773E-003	-2,2507156E-003
27/08/2025 00:23:07.6556	6,7049102E-003	-2,2473540E-003
27/08/2025 00:23:09.9556	8,6140092E-003	-2,2463610E-003
27/08/2025 00:23:12.2556	1,1795843E-002	-2,2399817E-003
27/08/2025 00:23:14.5556	1,0523110E-002	-2,2265734E-003
27/08/2025 00:23:16.8556	9,2503773E-003	-2,2206525E-003
27/08/2025 00:23:19.1556	1,2432210E-002	-2,2298587E-003
27/08/2025 00:23:21.4556	7,9776440E-003	-2,2095365E-003
27/08/2025 00:23:23.7556	1,1159477E-002	-2,2087342E-003
27/08/2025 00:23:26.0556	9,7761012E-004	-2,2074739E-003
27/08/2025 00:23:28.3556	8,6140092E-003	-2,2098804E-003
27/08/2025 00:23:30.6556	1,3068578E-002	-2,2019348E-003
27/08/2025 00:23:32.9556	1,3704944E-002	-2,1940274E-003
27/08/2025 00:23:35.2556	1,2432210E-002	-2,1952116E-003
27/08/2025 00:23:37.5556	1,1795843E-002	-2,1887175E-003
27/08/2025 00:23:39.8556	9,8867435E-003	-2,1864639E-003
27/08/2025 00:23:42.1556	3,5230771E-003	-2,1852797E-003
27/08/2025 00:23:44.4556	7,9776440E-003	-2,1882593E-003
27/08/2025 00:23:46.7556	9,2503773E-003	-2,1781744E-003
27/08/2025 00:23:49.0556	1,4341311E-002	-2,1768378E-003
27/08/2025 00:23:51.2558	-5,2977180E+001	-2,0896299E-002
27/08/2025 00:23:53.5558	-5,2973995E+001	-2,6822785E-002
27/08/2025 00:23:55.8558	-5,2977180E+001	-2,9719196E-002
27/08/2025 00:23:58.1558	-5,2977814E+001	-3,1597588E-002
27/08/2025 00:24:00.4558	-5,2981636E+001	-3,3063844E-002
27/08/2025 00:24:02.7558	-5,2977180E+001	-3,4336235E-002
27/08/2025 00:24:05.0558	-5,2971451E+001	-3,5197940E-002
27/08/2025 00:24:07.3558	-5,2984180E+001	-3,5956856E-002
27/08/2025 00:24:09.6558	-5,2975906E+001	-3,6662094E-002
27/08/2025 00:24:11.9558	-5,2982906E+001	-3,7097421E-002
27/08/2025 00:24:14.2558	-5,2977814E+001	-3,7568193E-002
27/08/2025 00:24:16.5558	-5,2985451E+001	-3,7956260E-002
27/08/2025 00:24:18.8558	-5,2970181E+001	-3,8199250E-002
27/08/2025 00:24:21.1558	-5,2981636E+001	-3,8521234E-002
27/08/2025 00:24:23.4558	-5,2976543E+001	-3,8744356E-002
27/08/2025 00:24:25.7558	-5,2973358E+001	-3,8876988E-002
27/08/2025 00:24:28.0558	-5,2973995E+001	-3,9129715E-002
27/08/2025 00:24:30.3558	-5,2973995E+001	-3,9230064E-002
27/08/2025 00:24:32.6558	-5,2973358E+001	-3,9311316E-002
27/08/2025 00:24:34.9558	-5,2979088E+001	-3,9508045E-002
27/08/2025 00:24:37.2558	-5,2977814E+001	-3,9521072E-002
27/08/2025 00:24:39.5558	-5,2972088E+001	-3,9597932E-002
27/08/2025 00:24:41.8558	-5,2975906E+001	-3,9726090E-002
27/08/2025 00:24:44.1558	-5,2973995E+001	-3,9707486E-002
27/08/2025 00:24:46.4558	-5,2982906E+001	-3,9790571E-002
27/08/2025 00:24:48.7558	-5,2972088E+001	-3,9868191E-002
27/08/2025 00:24:51.0558	-5,2974636E+001	-3,9841067E-002
27/08/2025 00:24:53.3558	-5,2972725E+001	-3,9949134E-002
27/08/2025 00:24:55.6558	-5,2973995E+001	-3,9971482E-002
27/08/2025 00:24:57.9558	-5,2978451E+001	-3,9947685E-002
27/08/2025 00:25:00.2558	-5,2980358E+001	-4,0051661E-002
27/08/2025 00:25:02.5558	-5,2972725E+001	-4,0039591E-002
27/08/2025 00:25:04.8558	-5,2979729E+001	-4,0042993E-002
27/08/2025 00:25:07.1558	-5,2977180E+001	-4,0167522E-002
27/08/2025 00:25:09.4558	-5,2979088E+001	-4,0112901E-002
27/08/2025 00:25:11.7558	-5,2973358E+001	-4,0160153E-002
27/08/2025 00:25:14.0558	-5,2980999E+001	-4,0255915E-002
27/08/2025 00:25:16.3558	-5,2976543E+001	-4,0200680E-002
27/08/2025 00:25:18.6558	-5,2980358E+001	-4,0288426E-002
27/08/2025 00:25:20.9558	-5,2979729E+001	-4,0338010E-002
27/08/2025 00:25:23.2558	-5,2975906E+001	-4,0292587E-002
27/08/2025 00:25:25.5558	-5,2975266E+001	-4,0407341E-002
27/08/2025 00:25:27.8558	-5,2974636E+001	-4,0427700E-002
27/08/2025 00:25:30.1558	-5,2977180E+001	-4,0385187E-002
27/08/2025 00:25:32.4558	-5,2975266E+001	-4,0518235E-002
27/08/2025 00:25:34.7558	-5,2978451E+001	-4,0516824E-002
27/08/2025 00:25:37.0558	-5,2982273E+001	-4,0505551E-002
27/08/2025 00:25:39.3558	-5,2974636E+001	-4,0630583E-002
27/08/2025 00:25:41.6558	-5,2972725E+001	-4,0601663E-002
27/08/2025 00:25:43.9558	-5,2978451E+001	-4,0657088E-002
27/08/2025 00:25:46.2558	-5,2981636E+001	-4,0726382E-002
27/08/2025 00:25:48.5558	-5,2970818E+001	-4,0706862E-002
27/08/2025 00:25:50.8558	-5,2978451E+001	-4,0791821E-002
27/08/2025 00:25:53.0560	7,9513718E+001	1,9159952E-002
27/08/2025 00:25:55.3560	7,9504181E+001	2,6682913E-002
27/08/2025 00:25:57.6560	7,9509903E+001	3,1843644E-002
27/08/2025 00:25:59.9560	7,9513718E+001	3,5774119E-002
27/08/2025 00:26:02.2560	7,9512444E+001	3,8691118E-002
27/08/2025 00:26:04.5560	7,9506721E+001	4,1128449E-002
27/08/2025 00:26:06.8560	7,9519447E+001	4,3130837E-002
27/08/2025 00:26:09.1560	7,9505440E+001	4,4638082E-002
27/08/2025 00:26:11.4560	7,9508629E+001	4,6013035E-002
27/08/2025 00:26:13.7560	7,9514359E+001	4,7083236E-002
27/08/2025 00:26:16.0560	7,9505440E+001	4,7898725E-002
27/08/2025 00:26:18.3560	7,9502899E+001	4,8759285E-002
27/08/2025 00:26:20.6560	7,9509262E+001	4,9336981E-002
27/08/2025 00:26:22.9560	7,9509903E+001	4,9824025E-002
27/08/2025 00:26:25.2560	7,9507347E+001	5,0424676E-002
27/08/2025 00:26:27.5560	7,9516266E+001	5,0719921E-002
27/08/2025 00:26:29.8560	7,9518173E+001	5,1025480E-002
27/08/2025 00:26:32.1560	7,9518806E+001	5,1439527E-002
27/08/2025 00:26:34.4560	7,9512444E+001	5,1551756E-002
27/08/2025 00:26:36.7560	7,9516899E+001	5,1782865E-002
27/08/2025 00:26:39.0560	7,9516266E+001	5,2029710E-002
27/08/2025 00:26:41.3560	7,9504181E+001	5,2041359E-002
27/08/2025 00:26:43.6560	7,9508629E+001	5,2249663E-002
27/08/2025 00:26:45.9560	7,9516266E+001	5,2352343E-002
27/08/2025 00:26:48.2560	7,9513084E+001	5,2338779E-002
27/08/2025 00:26:50.5560	7,9518806E+001	5,2537996E-002
27/08/2025 00:26:52.8560	7,9518173E+001	5,2545939E-002
27/08/2025 00:26:55.1560	7,9509262E+001	5,2535892E-002
27/08/2025 00:26:57.4560	7,9514992E+001	5,2722458E-002
27/08/2025 00:26:59.7559	7,9510536E+001	5,2701488E-002
27/08/2025 00:27:02.0560	7,9512444E+001	5,2715164E-002
27/08/2025 00:27:04.3559	7,9511177E+001	5,2877702E-002
27/08/2025 00:27:06.6560	7,9514359E+001	5,2821282E-002
27/08/2025 00:27:08.9559	7,9514359E+001	5,2878849E-002
27/08/2025 00:27:11.2559	7,9514992E+001	5,2989017E-002
27/08/2025 00:27:13.5559	7,9505440E+001	5,2932441E-002
27/08/2025 00:27:15.8559	7,9506721E+001	5,3057127E-002
27/08/2025 00:27:18.1559	7,9514359E+001	5,3091776E-002
27/08/2025 00:27:20.4559	7,9509262E+001	5,3061597E-002
27/08/2025 00:27:22.7559	7,9514992E+001	5,3230971E-002
27/08/2025 00:27:25.0559	7,9509903E+001	5,3216457E-002
27/08/2025 00:27:27.3559	7,9511177E+001	5,3207748E-002
27/08/2025 00:27:29.6559	7,9514992E+001	5,3395573E-002
27/08/2025 00:27:31.9559	7,9514992E+001	5,3337436E-002
27/08/2025 00:27:34.2559	7,9512444E+001	5,3355504E-002
27/08/2025 00:27:36.5559	7,9509903E+001	5,3519152E-002
27/08/2025 00:27:38.8559	7,9513084E+001	5,3448249E-002
27/08/2025 00:27:41.1559	7,9513718E+001	5,3530227E-002
27/08/2025 00:27:43.4559	7,9516266E+001	5,3650022E-002
27/08/2025 00:27:45.7559	7,9509903E+001	5,3581990E-002
27/08/2025 00:27:48.0559	7,9509262E+001	5,3744875E-002
27/08/2025 00:27:50.3559	7,9516266E+001	5,3787541E-002
27/08/2025 00:27:52.5563	8,6140092E-003	1,9237077E-002
27/08/2025 00:27:54.8563	9,8867435E-003	1,4011786E-002
27/08/2025 00:27:57.1563	7,3412773E-003	1,0742623E-002
27/08/2025 00:27:59.4563	6,0685435E-003	8,3119432E-003
27/08/2025 00:28:01.7563	2,8867100E-003	6,4380593E-003
27/08/2025 00:28:04.0563	1,1159477E-002	4,9905987E-003
27/08/2025 00:28:06.3563	7,3412773E-003	3,7977004E-003
27/08/2025 00:28:08.6563	1,6250411E-002	2,8446959E-003
27/08/2025 00:28:10.9563	1,2432210E-002	2,0833388E-003
27/08/2025 00:28:13.2563	5,4321769E-003	1,4389110E-003
27/08/2025 00:28:15.5563	5,4321769E-003	9,2142040E-004
27/08/2025 00:28:17.8563	1,1159477E-002	4,8346160E-004
27/08/2025 00:28:20.1563	1,6250411E-002	1,3905365E-004
27/08/2025 00:28:22.4563	8,6140092E-003	-1,6027871E-004
27/08/2025 00:28:24.7563	1,1159477E-002	-4,0678095E-004
27/08/2025 00:28:27.0563	9,2503773E-003	-6,1867438E-004
27/08/2025 00:28:29.3563	5,4321769E-003	-7,8419340E-004
27/08/2025 00:28:31.6563	8,6140092E-003	-9,3305740E-004
27/08/2025 00:28:33.9563	6,0685435E-003	-1,0452879E-003
27/08/2025 00:28:36.2563	1,3068578E-002	-1,1187841E-003
27/08/2025 00:28:38.5563	3,5230771E-003	-1,1886894E-003
27/08/2025 00:28:40.8563	9,2503773E-003	-1,2368591E-003
27/08/2025 00:28:43.1563	1,1159477E-002	-1,2651269E-003
27/08/2025 00:28:45.4563	9,2503773E-003	-1,2939676E-003
27/08/2025 00:28:47.7563	1,1795843E-002	-1,3205163E-003
27/08/2025 00:28:50.0563	1,5614044E-002	-1,3225791E-003
27/08/2025 00:28:52.3563	1,0523110E-002	-1,3267429E-003
27/08/2025 00:28:54.6563	9,2503773E-003	-1,3280798E-003
27/08/2025 00:28:56.9563	9,8867435E-003	-1,3234577E-003
27/08/2025 00:28:59.2563	1,0523110E-002	-1,3110810E-003
27/08/2025 00:29:01.5563	9,8867435E-003	-1,3103171E-003
27/08/2025 00:29:03.8563	9,8867435E-003	-1,3112337E-003
27/08/2025 00:29:06.1563	1,8795876E-002	-1,2957630E-003
27/08/2025 00:29:08.4563	1,0523110E-002	-1,2799101E-003
27/08/2025 00:29:10.7563	1,1159477E-002	-1,2809796E-003
27/08/2025 00:29:13.0563	9,8867435E-003	-1,2711241E-003
27/08/2025 00:29:15.3563	5,4321769E-003	-1,2538197E-003
27/08/2025 00:29:17.6563	5,4321769E-003	-1,2580982E-003
27/08/2025 00:29:19.9563	9,2503773E-003	-1,2482426E-003
27/08/2025 00:29:22.2563	7,9776440E-003	-1,2330010E-003
27/08/2025 00:29:24.5563	1,0523110E-002	-1,2325807E-003
27/08/2025 00:29:26.8563	1,4977678E-002	-1,2272329E-003
27/08/2025 00:29:29.1563	7,9776440E-003	-1,2157728E-003
27/08/2025 00:29:31.4563	1,4977678E-002	-1,2081329E-003
27/08/2025 00:29:33.7563	1,2432210E-002	-1,2077892E-003
27/08/2025 00:29:36.0563	9,2503773E-003	-1,1954125E-003
27/08/2025 00:29:38.3563	7,9776440E-003	-1,1898353E-003
27/08/2025 00:29:40.6563	9,7761012E-004	-1,1938463E-003
27/08/2025 00:29:42.9563	1,5614044E-002	-1,1910578E-003
27/08/2025 00:29:45.2563	1,4977678E-002	-1,1826538E-003
27/08/2025 00:29:47.5563	1,1159477E-002	-1,1862827E-003
27/08/2025 00:29:49.8563	7,3412773E-003	-1,1889950E-003
27/08/2025 00:29:52.0565	-7,9472305E+001	-3,3830509E-002
27/08/2025 00:29:54.3565	-7,9475487E+001	-3,9857723E-002
27/08/2025 00:29:56.6565	-7,9477394E+001	-4,3439783E-002
27/08/2025 00:29:58.9565	-7,9480576E+001	-4,6159253E-002
27/08/2025 00:30:01.2565	-7,9476761E+001	-4,8221726E-002
27/08/2025 00:30:03.5565	-7,9467216E+001	-4,9792688E-002
27/08/2025 00:30:05.8565	-7,9473579E+001	-5,1218908E-002
27/08/2025 00:30:08.1565	-7,9471664E+001	-5,2265499E-002
27/08/2025 00:30:10.4565	-7,9471664E+001	-5,3101808E-002
27/08/2025 00:30:12.7565	-7,9476761E+001	-5,3982574E-002
27/08/2025 00:30:15.0565	-7,9472305E+001	-5,4510798E-002
27/08/2025 00:30:17.3565	-7,9469124E+001	-5,5008732E-002
27/08/2025 00:30:19.6565	-7,9471664E+001	-5,5576455E-002
27/08/2025 00:30:21.9565	-7,9473579E+001	-5,5828571E-002
27/08/2025 00:30:24.2565	-7,9478027E+001	-5,6196205E-002
27/08/2025 00:30:26.5565	-7,9474846E+001	-5,6557689E-002
27/08/2025 00:30:28.8565	-7,9465935E+001	-5,6673285E-002
27/08/2025 00:30:31.1565	-7,9478668E+001	-5,6977045E-002
27/08/2025 00:30:33.4565	-7,9466583E+001	-5,7168271E-002
27/08/2025 00:30:35.7565	-7,9472939E+001	-5,7207011E-002
27/08/2025 00:30:38.0565	-7,9471031E+001	-5,7477232E-002
27/08/2025 00:30:40.3565	-7,9472939E+001	-5,7550266E-002
27/08/2025 00:30:42.6565	-7,9476761E+001	-5,7552941E-002
27/08/2025 00:30:44.9565	-7,9476761E+001	-5,7790048E-002
27/08/2025 00:30:47.2565	-7,9472939E+001	-5,7794787E-002
27/08/2025 00:30:49.5565	-7,9469749E+001	-5,7815753E-002
27/08/2025 00:30:51.8565	-7,9467842E+001	-5,7996061E-002
27/08/2025 00:30:54.1565	-7,9471031E+001	-5,7963286E-002
27/08/2025 00:30:56.4565	-7,9469749E+001	-5,8045220E-002
27/08/2025 00:30:58.7565	-7,9480576E+001	-5,8154054E-002
27/08/2025 00:31:01.0565	-7,9471031E+001	-5,8120128E-002
27/08/2025 00:31:03.3565	-7,9474213E+001	-5,8251537E-002
27/08/2025 00:31:05.6565	-7,9475487E+001	-5,8279842E-002
27/08/2025 00:31:07.9565	-7,9476120E+001	-5,8259904E-002
27/08/2025 00:31:10.2565	-7,9474213E+001	-5,8429051E-002
27/08/2025 00:31:12.5565	-7,9464676E+001	-5,8399826E-002
27/08/2025 00:31:14.8565	-7,9466583E+001	-5,8396582E-002
27/08/2025 00:31:17.1565	-7,9476761E+001	-5,8600299E-002
27/08/2025 00:31:19.4565	-7,9473579E+001	-5,8522757E-002
27/08/2025 00:31:21.7565	-7,9476761E+001	-5,8568556E-002
27/08/2025 00:31:24.0565	-7,9470398E+001	-5,8742668E-002
27/08/2025 00:31:26.3565	-7,9471031E+001	-5,8649961E-002
27/08/2025 00:31:28.6565	-7,9469124E+001	-5,8757760E-002
27/08/2025 00:31:30.9565	-7,9476761E+001	-5,8869418E-002
27/08/2025 00:31:33.2565	-7,9476120E+001	-5,8803901E-002
27/08/2025 00:31:35.5565	-7,9467842E+001	-5,8958802E-002
27/08/2025 00:31:37.8565	-7,9476120E+001	-5,9000786E-002
27/08/2025 00:31:40.1565	-7,9476761E+001	-5,8963500E-002
27/08/2025 00:31:42.4565	-7,9483116E+001	-5,9141364E-002
27/08/2025 00:31:44.7565	-7,9476120E+001	-5,9136815E-002
27/08/2025 00:31:47.0565	-7,9472305E+001	-5,9141364E-002
27/08/2025 00:31:49.3565	-7,9475487E+001	-5,9323687E-002
27/08/2025 00:31:51.5567	1,0601140E+002	1,2044543E-002
27/08/2025 00:31:53.8567	1,0601585E+002	2,8926492E-002
27/08/2025 00:31:56.1567	1,0601648E+002	3,8187839E-002
27/08/2025 00:31:58.4567	1,0601713E+002	4,4571612E-002
27/08/2025 00:32:00.7567	1,0601713E+002	4,9435034E-002
27/08/2025 00:32:03.0567	1,0601203E+002	5,3484619E-002
27/08/2025 00:32:05.3567	1,0602348E+002	5,6539483E-002
27/08/2025 00:32:07.6567	1,0602285E+002	5,9045952E-002
27/08/2025 00:32:09.9567	1,0602221E+002	6,1295450E-002
27/08/2025 00:32:12.2567	1,0601266E+002	6,2897697E-002
27/08/2025 00:32:14.5567	1,0601266E+002	6,4306848E-002
27/08/2025 00:32:16.8567	1,0601585E+002	6,5606974E-002
27/08/2025 00:32:19.1567	1,0601394E+002	6,6485330E-002
27/08/2025 00:32:21.4567	1,0601012E+002	6,7351624E-002
27/08/2025 00:32:23.7567	1,0600885E+002	6,8143919E-002
27/08/2025 00:32:26.0567	1,0601203E+002	6,8647891E-002
27/08/2025 00:32:28.3567	1,0601140E+002	6,9301404E-002
27/08/2025 00:32:30.6567	1,0601522E+002	6,9711670E-002
27/08/2025 00:32:32.9567	1,0601522E+002	7,0000887E-002
27/08/2025 00:32:35.2567	1,0600949E+002	7,0504434E-002
27/08/2025 00:32:37.5567	1,0601967E+002	7,0671134E-002
27/08/2025 00:32:39.8567	1,0601266E+002	7,0832334E-002
27/08/2025 00:32:42.1567	1,0600758E+002	7,1203828E-002
27/08/2025 00:32:44.4567	1,0601266E+002	7,1224988E-002
27/08/2025 00:32:46.7567	1,0601266E+002	7,1345516E-002
27/08/2025 00:32:49.0567	1,0601331E+002	7,1618788E-002
27/08/2025 00:32:51.3567	1,0600631E+002	7,1549997E-002
27/08/2025 00:32:53.6567	1,0600949E+002	7,1708329E-002
27/08/2025 00:32:55.9567	1,0601648E+002	7,1869679E-002
27/08/2025 00:32:58.2567	1,0602029E+002	7,1788855E-002
27/08/2025 00:33:00.5567	1,0601076E+002	7,1998723E-002
27/08/2025 00:33:02.8567	1,0601713E+002	7,2054461E-002
27/08/2025 00:33:05.1567	1,0601522E+002	7,1994290E-002
27/08/2025 00:33:07.4567	1,0602094E+002	7,2234340E-002
27/08/2025 00:33:09.7567	1,0601076E+002	7,2215393E-002
27/08/2025 00:33:12.0567	1,0601713E+002	7,2200418E-002
27/08/2025 00:33:14.3567	1,0601904E+002	7,2431490E-002
27/08/2025 00:33:16.6567	1,0600949E+002	7,2389767E-002
27/08/2025 00:33:18.9567	1,0601522E+002	7,2418265E-002
27/08/2025 00:33:21.2567	1,0601713E+002	7,2601594E-002
27/08/2025 00:33:23.5567	1,0601203E+002	7,2552010E-002
27/08/2025 00:33:25.8567	1,0601140E+002	7,2658889E-002
27/08/2025 00:33:28.1567	1,0601457E+002	7,2788499E-002
27/08/2025 00:33:30.4567	1,0601394E+002	7,2734982E-002
27/08/2025 00:33:32.7567	1,0601648E+002	7,2944663E-002
27/08/2025 00:33:35.0567	1,0602029E+002	7,2963759E-002
27/08/2025 00:33:37.3567	1,0601967E+002	7,2940879E-002
27/08/2025 00:33:39.6567	1,0601457E+002	7,3196471E-002
27/08/2025 00:33:41.9567	1,0601076E+002	7,3135123E-002
27/08/2025 00:33:44.2567	1,0601776E+002	7,3160723E-002
27/08/2025 00:33:46.5567	1,0601266E+002	7,3412642E-002
27/08/2025 00:33:48.8567	1,0601522E+002	7,3333614E-002
27/08/2025 00:33:51.1567	1,0601457E+002	7,3415510E-002
27/08/2025 00:33:53.3571	9,2503773E-003	2,4214337E-002
27/08/2025 00:33:55.6571	1,1159477E-002	1,8492758E-002
27/08/2025 00:33:57.9571	1,2432210E-002	1,4520606E-002
27/08/2025 00:34:00.2571	8,6140092E-003	1,1596614E-002
27/08/2025 00:34:02.5571	7,3412773E-003	9,3086092E-003
27/08/2025 00:34:04.8571	1,8795876E-002	7,4783117E-003
27/08/2025 00:34:07.1571	1,0523110E-002	6,0208049E-003
27/08/2025 00:34:09.4571	1,2432210E-002	4,8316116E-003
27/08/2025 00:34:11.7571	1,1159477E-002	3,8521732E-003
27/08/2025 00:34:14.0571	5,4321769E-003	3,0818773E-003
27/08/2025 00:34:16.3571	1,1795843E-002	2,4296567E-003
27/08/2025 00:34:18.6571	4,1594426E-003	1,8834019E-003
27/08/2025 00:34:20.9571	7,9776440E-003	1,4423107E-003
27/08/2025 00:34:23.2571	1,4977678E-002	1,0645544E-003
27/08/2025 00:34:25.5571	1,1795843E-002	7,4860523E-004
27/08/2025 00:34:27.8571	6,0685435E-003	4,8434018E-004
27/08/2025 00:34:30.1571	8,6140092E-003	2,7324897E-004
27/08/2025 00:34:32.4571	1,1795843E-002	1,0792095E-004
27/08/2025 00:34:34.7571	9,2503773E-003	-4,0217248E-005
27/08/2025 00:34:37.0571	5,4321769E-003	-1,4255408E-004
27/08/2025 00:34:39.3571	7,9776440E-003	-2,2346091E-004
27/08/2025 00:34:41.6571	1,4977678E-002	-2,8542071E-004
27/08/2025 00:34:43.9571	1,0523110E-002	-3,3087828E-004
27/08/2025 00:34:46.2571	2,0704975E-002	-3,5227009E-004
27/08/2025 00:34:48.5571	1,2432210E-002	-3,7224850E-004
27/08/2025 00:34:50.8571	1,1159477E-002	-3,8111082E-004
27/08/2025 00:34:53.1571	1,1159477E-002	-3,8256240E-004
27/08/2025 00:34:55.4571	4,7958097E-003	-3,7893344E-004
27/08/2025 00:34:57.7571	1,0523110E-002	-3,7778745E-004
27/08/2025 00:35:00.0571	1,1795843E-002	-3,7305069E-004
27/08/2025 00:35:02.3571	1,1795843E-002	-3,6231661E-004
27/08/2025 00:35:04.6571	9,2503773E-003	-3,5364527E-004
27/08/2025 00:35:06.9571	1,3704944E-002	-3,4084838E-004
27/08/2025 00:35:09.2571	1,4977678E-002	-3,2816612E-004
27/08/2025 00:35:11.5571	7,3412773E-003	-3,2220696E-004
27/08/2025 00:35:13.8571	8,6140092E-003	-3,1208407E-004
27/08/2025 00:35:16.1571	9,8867435E-003	-3,0070057E-004
27/08/2025 00:35:18.4571	1,1795843E-002	-2,7892677E-004
27/08/2025 00:35:20.7571	8,6140092E-003	-2,7751341E-004
27/08/2025 00:35:23.0571	1,4977678E-002	-2,6498392E-004
27/08/2025 00:35:25.3571	1,3068578E-002	-2,5298924E-004
27/08/2025 00:35:27.6571	9,8867435E-003	-2,5077368E-004
27/08/2025 00:35:29.9571	7,3412773E-003	-2,4382131E-004
27/08/2025 00:35:32.2571	6,0685435E-003	-2,3480620E-004
27/08/2025 00:35:34.5571	4,7958097E-003	-2,2193292E-004
27/08/2025 00:35:36.8571	5,4321769E-003	-2,1876236E-004
27/08/2025 00:35:39.1571	6,7049102E-003	-2,1566819E-004
27/08/2025 00:35:41.4571	4,7958097E-003	-2,0883045E-004
27/08/2025 00:35:43.7571	4,7958097E-003	-2,0917425E-004
27/08/2025 00:35:46.0571	7,3412773E-003	-2,0608008E-004
27/08/2025 00:35:48.3571	1,3068578E-002	-1,8797346E-004
27/08/2025 00:35:50.6571	1,3704944E-002	-1,9156422E-004
27/08/2025 00:35:52.8573	-1,0597952E+002	-4,7039676E-002
27/08/2025 00:35:55.1573	-1,0597761E+002	-5,3457290E-002
27/08/2025 00:35:57.4573	-1,0597507E+002	-5,7989337E-002
27/08/2025 00:35:59.7573	-1,0597314E+002	-6,1140120E-002
27/08/2025 00:36:02.0573	-1,0596997E+002	-6,3653804E-002
27/08/2025 00:36:04.3573	-1,0597633E+002	-6,5889366E-002
27/08/2025 00:36:06.6573	-1,0597507E+002	-6,7443252E-002
27/08/2025 00:36:08.9573	-1,0597189E+002	-6,8830542E-002
27/08/2025 00:36:11.2573	-1,0597379E+002	-7,0069700E-002
27/08/2025 00:36:13.5573	-1,0596870E+002	-7,0916966E-002
27/08/2025 00:36:15.8573	-1,0597189E+002	-7,1782656E-002
27/08/2025 00:36:18.1573	-1,0597060E+002	-7,2470702E-002
27/08/2025 00:36:20.4573	-1,0597761E+002	-7,2952174E-002
27/08/2025 00:36:22.7573	-1,0597633E+002	-7,3581204E-002
27/08/2025 00:36:25.0573	-1,0597507E+002	-7,3946089E-002
27/08/2025 00:36:27.3573	-1,0597314E+002	-7,4248552E-002
27/08/2025 00:36:29.6573	-1,0597443E+002	-7,4754700E-002
27/08/2025 00:36:31.9573	-1,0597379E+002	-7,4880496E-002
27/08/2025 00:36:34.2573	-1,0597633E+002	-7,5091965E-002
27/08/2025 00:36:36.5573	-1,0597570E+002	-7,5471699E-002
27/08/2025 00:36:38.8573	-1,0596806E+002	-7,5459786E-002
27/08/2025 00:36:41.1573	-1,0598016E+002	-7,5655408E-002
27/08/2025 00:36:43.4573	-1,0597124E+002	-7,5892359E-002
27/08/2025 00:36:45.7573	-1,0597189E+002	-7,5841054E-002
27/08/2025 00:36:48.0573	-1,0597570E+002	-7,6044396E-002
27/08/2025 00:36:50.3573	-1,0598016E+002	-7,6167285E-002
27/08/2025 00:36:52.6573	-1,0597697E+002	-7,6117925E-002
27/08/2025 00:36:54.9573	-1,0596806E+002	-7,6343648E-002
27/08/2025 00:36:57.2573	-1,0596679E+002	-7,6379403E-002
27/08/2025 00:36:59.5573	-1,0597314E+002	-7,6325014E-002
27/08/2025 00:37:01.8573	-1,0597379E+002	-7,6594353E-002
27/08/2025 00:37:04.1573	-1,0598079E+002	-7,6558255E-002
27/08/2025 00:37:06.4573	-1,0597507E+002	-7,6553822E-002
27/08/2025 00:37:08.7573	-1,0596552E+002	-7,6797806E-002
27/08/2025 00:37:11.0573	-1,0597124E+002	-7,6727405E-002
27/08/2025 00:37:13.3573	-1,0596806E+002	-7,6801628E-002
27/08/2025 00:37:15.6573	-1,0597124E+002	-7,6961108E-002
27/08/2025 00:37:17.9573	-1,0597379E+002	-7,6901518E-002
27/08/2025 00:37:20.2573	-1,0597251E+002	-7,7065311E-002
27/08/2025 00:37:22.5573	-1,0597888E+002	-7,7129833E-002
27/08/2025 00:37:24.8573	-1,0596806E+002	-7,7092744E-002
27/08/2025 00:37:27.1573	-1,0597251E+002	-7,7322401E-002
27/08/2025 00:37:29.4573	-1,0596806E+002	-7,7323474E-002
27/08/2025 00:37:31.7573	-1,0598079E+002	-7,7291384E-002
27/08/2025 00:37:34.0573	-1,0596933E+002	-7,7560425E-002
27/08/2025 00:37:36.3573	-1,0597189E+002	-7,7495903E-002
27/08/2025 00:37:38.6573	-1,0597697E+002	-7,7535629E-002
27/08/2025 00:37:40.9573	-1,0597507E+002	-7,7790074E-002
27/08/2025 00:37:43.2573	-1,0596933E+002	-7,7696033E-002
27/08/2025 00:37:45.5573	-1,0596933E+002	-7,7823311E-002
27/08/2025 00:37:47.8573	-1,0596870E+002	-7,7985585E-002
27/08/2025 00:37:50.1573	-1,0597124E+002	-7,7906393E-002
27/08/2025 00:37:51.1575	-1,0597251E+002	-7,8014381E-002