File: data/phase_2a/Sergey/1/8.3/02 polarisation/SN50_C5D1E2_mr2_0,1MFeCN6_in_1M_KCl_3306mL_symmetric_balanced_4_point_PEIS_10mHz_200kHz_10mV_04_CA_C16.txt
time/s	<I>/mA	Ewe/V
27/08/2025 01:27:52.3641	2,421508564228325E+002	-2,0735073E-003
27/08/2025 01:27:57.3641	8,240094950714092E+001	-2,1690065E-003
27/08/2025 01:28:02.3641	4,051750676879874E+001	-2,0926071E-003
27/08/2025 01:28:07.3641	2,155700268974303E+001	-2,0735073E-003
27/08/2025 01:28:12.3641	1,201778343086241E+001	-2,0544075E-003
27/08/2025 01:28:17.3641	7,074028681087484E+000	-2,1308069E-003
27/08/2025 01:28:22.3641	4,141085992527010E+000	-2,2836053E-003
27/08/2025 01:28:27.3641	2,427567170143128E+000	-2,0162079E-003
27/08/2025 01:28:32.3641	1,577094880437851E+000	-2,0353077E-003
27/08/2025 01:28:37.3641	1,328091491270065E+000	-2,1117069E-003
27/08/2025 01:28:42.3641	1,434558145308494E+000	-2,1499067E-003
27/08/2025 01:28:47.3641	1,685225128126144E+000	-2,1881063E-003
27/08/2025 01:28:52.3641	1,960954861307137E+000	-2,0926071E-003
27/08/2025 01:28:57.3641	2,192253329515458E+000	-2,1117069E-003
27/08/2025 01:29:02.3641	2,379189917469024E+000	-2,2645055E-003
27/08/2025 01:29:07.3641	2,536687454128263E+000	-2,0544075E-003
27/08/2025 01:29:12.3641	2,657124251270295E+000	-2,1308069E-003
27/08/2025 01:29:17.3641	2,758306209230422E+000	-2,1117069E-003
27/08/2025 01:29:22.3641	2,838684341573714E+000	-2,0353077E-003
27/08/2025 01:29:27.3641	2,900811855697633E+000	-2,0926071E-003
27/08/2025 01:29:32.3641	2,946472333812714E+000	-2,0735073E-003
27/08/2025 01:29:37.3641	2,990259349346161E+000	-2,1881063E-003
27/08/2025 01:29:42.3641	3,015702254962921E+000	-2,0735073E-003
27/08/2025 01:29:47.3641	3,027547323703764E+000	-2,1499067E-003
27/08/2025 01:29:52.3641	3,041627552700042E+000	-2,1308069E-003
27/08/2025 01:29:57.3641	3,035456112098693E+000	-2,0735073E-003
27/08/2025 01:30:02.3641	3,032453807210921E+000	-2,1499067E-003
27/08/2025 01:30:07.3641	3,030071777772900E+000	-2,2263059E-003
27/08/2025 01:30:12.3641	3,024145462131493E+000	-2,1690065E-003
27/08/2025 01:30:17.3641	3,004660935592646E+000	-2,0544075E-003
27/08/2025 01:30:22.3641	2,999115927505493E+000	-2,1690065E-003
27/08/2025 01:30:27.3641	2,987088647222517E+000	-2,0735073E-003
27/08/2025 01:30:32.3641	2,980083498716350E+000	-2,1499067E-003
27/08/2025 01:30:37.3641	2,969255595350262E+000	-2,1690065E-003
27/08/2025 01:30:42.3641	2,960050322294235E+000	-2,2072061E-003
27/08/2025 01:30:47.3641	2,944988647079470E+000	-2,0926071E-003
27/08/2025 01:30:52.3641	2,933628572940826E+000	-2,0544075E-003
27/08/2025 01:30:57.3641	2,931861007642738E+000	-2,1881063E-003
27/08/2025 01:31:02.3641	2,921616621494287E+000	-2,1117069E-003
27/08/2025 01:31:07.3641	2,917106724548333E+000	-2,0926071E-003
27/08/2025 01:31:12.3641	2,905918753004073E+000	-2,0544075E-003
27/08/2025 01:31:17.3641	2,901217781734459E+000	-2,1117069E-003
27/08/2025 01:31:22.3641	2,894364378023147E+000	-2,1117069E-003
27/08/2025 01:31:27.3641	2,885921050596234E+000	-2,1499067E-003
27/08/2025 01:31:32.3641	2,872722805261613E+000	-2,1117069E-003
27/08/2025 01:31:37.3641	2,872212602996825E+000	-2,1499067E-003
27/08/2025 01:31:42.3641	2,862405305862426E+000	-1,9780083E-003
27/08/2025 01:31:47.3641	2,852805836772918E+000	-2,1881063E-003
27/08/2025 01:31:52.3641	2,848882523393627E+000	-2,1690065E-003
27/08/2025 01:31:57.3641	2,843001801872251E+000	-2,1117069E-003
27/08/2025 01:32:02.3641	2,834409315204617E+000	-2,1499067E-003
27/08/2025 01:32:07.3641	2,815977189445491E+000	-2,1308069E-003
27/08/2025 01:32:12.3641	2,816173296308516E+000	-2,1117069E-003
27/08/2025 01:32:17.3641	2,810812752914426E+000	-2,2072061E-003
27/08/2025 01:32:22.3641	2,803156648588178E+000	-2,0926071E-003
27/08/2025 01:32:27.3641	2,792256432628626E+000	-2,0353077E-003
27/08/2025 01:32:32.3641	2,790398509407041E+000	-2,2072061E-003
27/08/2025 01:32:37.3641	2,778338225603100E+000	-2,2263059E-003
27/08/2025 01:32:42.3641	2,771712102699276E+000	-2,0735073E-003
27/08/2025 01:32:47.3641	2,757364820575710E+000	-2,2072061E-003
27/08/2025 01:32:52.3641	2,756611543560027E+000	-2,1308069E-003
27/08/2025 01:32:57.3641	2,754641949415202E+000	-2,0926071E-003
27/08/2025 01:33:02.3641	2,748558328342433E+000	-2,1499067E-003
27/08/2025 01:33:07.3641	2,740571418952939E+000	-2,1690065E-003
27/08/2025 01:33:12.3641	2,733769876766205E+000	-2,2072061E-003
27/08/2025 01:33:17.3641	2,724872184896462E+000	-2,1308069E-003
27/08/2025 01:33:22.3641	2,720973531484603E+000	-2,2072061E-003
27/08/2025 01:33:27.3641	2,710249108219145E+000	-2,1881063E-003
27/08/2025 01:33:32.3641	2,708017820930481E+000	-2,0926071E-003
27/08/2025 01:33:37.3641	2,703935793733592E+000	-2,1117069E-003
27/08/2025 01:33:42.3641	2,692043872642515E+000	-2,1690065E-003
27/08/2025 01:33:47.3641	2,681119605588911E+000	-2,1308069E-003
27/08/2025 01:33:52.3641	2,674545756769180E+000	-2,0926071E-003
27/08/2025 01:33:57.3641	2,663253484535218E+000	-2,1499067E-003
27/08/2025 01:34:02.3641	2,654233516311642E+000	-2,1308069E-003
27/08/2025 01:34:07.3641	2,654450889730454E+000	-2,0544075E-003
27/08/2025 01:34:12.3641	2,647571847391127E+000	-2,1690065E-003
27/08/2025 01:34:17.3641	2,638651835346222E+000	-2,0353077E-003
27/08/2025 01:34:22.3641	2,633829096126556E+000	-2,1499067E-003
27/08/2025 01:34:27.3641	2,623854171323775E+000	-2,1881063E-003
27/08/2025 01:34:32.3641	2,617908195066452E+000	-2,1690065E-003
27/08/2025 01:34:37.3641	2,608999305391308E+000	-2,0926071E-003
27/08/2025 01:34:42.3641	2,610591441726683E+000	-2,1499067E-003
27/08/2025 01:34:47.3641	2,599374256134034E+000	-2,2263059E-003
27/08/2025 01:34:52.3641	2,588916741847992E+000	-2,0162079E-003
27/08/2025 01:34:57.3641	2,577875052309032E+000	-2,0544075E-003
27/08/2025 01:35:02.3641	2,578106689596172E+000	-2,1308069E-003
27/08/2025 01:35:07.3641	2,571248237514496E+000	-2,2072061E-003
27/08/2025 01:35:12.3641	2,562727497291561E+000	-2,0735073E-003
27/08/2025 01:35:17.3641	2,550385481357574E+000	-2,1499067E-003
27/08/2025 01:35:22.3641	2,556007472705836E+000	-2,1881063E-003
27/08/2025 01:35:27.3641	2,543110289859769E+000	-2,1308069E-003
27/08/2025 01:35:32.3641	2,534004933738708E+000	-2,1690065E-003
27/08/2025 01:35:37.3641	2,528360080051421E+000	-2,1117069E-003
27/08/2025 01:35:42.3641	2,524023559379575E+000	-2,1499067E-003
27/08/2025 01:35:47.3641	2,517314133739468E+000	-2,2072061E-003
27/08/2025 01:35:52.3641	2,503983304071422E+000	-2,1308069E-003
27/08/2025 01:35:57.3641	2,501048558616638E+000	-2,1117069E-003
27/08/2025 01:36:02.3641	2,496765200662608E+000	-2,0735073E-003
27/08/2025 01:36:07.3641	2,495239741516113E+000	-2,1117069E-003
27/08/2025 01:36:12.3641	2,489634943819045E+000	-2,0926071E-003
27/08/2025 01:36:17.3641	2,483342958402631E+000	-2,0735073E-003
27/08/2025 01:36:22.3641	2,476150066614149E+000	-2,1881063E-003
27/08/2025 01:36:27.3641	2,468412311887739E+000	-2,1881063E-003
27/08/2025 01:36:32.3641	2,464175621747970E+000	-2,1690065E-003
27/08/2025 01:36:37.3641	2,455651096534726E+000	-2,1308069E-003
27/08/2025 01:36:42.3641	2,451561134099961E+000	-2,2072061E-003
27/08/2025 01:36:47.3641	2,448280963230133E+000	-2,0353077E-003
27/08/2025 01:36:52.3641	2,436465663480760E+000	-2,0353077E-003
27/08/2025 01:36:57.3641	2,436313857936859E+000	-2,1690065E-003
27/08/2025 01:37:02.3641	2,427798498725891E+000	-2,0162079E-003
27/08/2025 01:37:07.3641	2,416412153196333E+000	-2,1881063E-003
27/08/2025 01:37:12.3641	2,412082658672333E+000	-2,1308069E-003
27/08/2025 01:37:17.3641	2,405659448862076E+000	-2,1690065E-003
27/08/2025 01:37:22.3641	2,401788963365554E+000	-2,0735073E-003
27/08/2025 01:37:27.3641	2,391532879638671E+000	-2,1117069E-003
27/08/2025 01:37:32.3641	2,389769999456405E+000	-2,1881063E-003
27/08/2025 01:37:37.3641	2,387423373317709E+000	-2,0735073E-003
27/08/2025 01:37:42.3641	2,378086773252488E+000	-2,0544075E-003
27/08/2025 01:37:47.3641	2,372644587898250E+000	-2,2263059E-003
27/08/2025 01:37:52.3641	2,363909225511550E+000	-2,1308069E-003
27/08/2025 01:37:57.3641	2,363931169223785E+000	-2,0735073E-003
27/08/2025 01:38:02.3641	2,353509639215469E+000	-2,1690065E-003
27/08/2025 01:38:07.3641	2,343742173576352E+000	-2,1881063E-003
27/08/2025 01:38:12.3641	2,337616947031020E+000	-2,2454057E-003
27/08/2025 01:38:17.3641	2,332797076320647E+000	-2,1308069E-003
27/08/2025 01:38:22.3641	2,327771637773514E+000	-2,2645055E-003
27/08/2025 01:38:27.3641	2,323356934022897E+000	-2,2072061E-003
27/08/2025 01:38:32.3641	2,322066078281402E+000	-2,0162079E-003
27/08/2025 01:38:37.3641	2,308438750219345E+000	-2,0544075E-003
27/08/2025 01:38:42.3641	2,307205706644057E+000	-2,1690065E-003
27/08/2025 01:38:47.3641	2,302965163040161E+000	-2,0926071E-003
27/08/2025 01:38:52.3641	2,298042148160931E+000	-2,0544075E-003
27/08/2025 01:38:57.3641	2,293273940944671E+000	-2,1117069E-003
27/08/2025 01:39:02.3641	2,279992898750301E+000	-2,1881063E-003
27/08/2025 01:39:07.3641	2,281454880189891E+000	-2,0162079E-003
27/08/2025 01:39:12.3641	2,270119721651074E+000	-2,1499067E-003
27/08/2025 01:39:17.3641	2,264723630142207E+000	-2,1881063E-003
27/08/2025 01:39:22.3641	2,262845108604424E+000	-2,0162079E-003
27/08/2025 01:39:27.3641	2,252559382581712E+000	-2,1881063E-003
27/08/2025 01:39:32.3641	2,250607252645493E+000	-2,1117069E-003
27/08/2025 01:39:37.3641	2,244449684667579E+000	-2,1117069E-003
27/08/2025 01:39:42.3641	2,239248692083358E+000	-2,1308069E-003
27/08/2025 01:39:47.3641	2,234454659414290E+000	-2,2263059E-003
27/08/2025 01:39:52.3641	2,230169004154206E+000	-2,2836053E-003
27/08/2025 01:39:57.3641	2,218559470987319E+000	-2,0735073E-003
27/08/2025 01:40:02.3641	2,221333096742626E+000	-2,2263059E-003
27/08/2025 01:40:07.3641	2,211494653415677E+000	-2,0162079E-003
27/08/2025 01:40:12.3641	2,206626941537856E+000	-2,0735073E-003
27/08/2025 01:40:17.3641	2,202225933074950E+000	-2,1499067E-003
27/08/2025 01:40:22.3641	2,200294166755675E+000	-2,0735073E-003
27/08/2025 01:40:27.3641	2,186886456823345E+000	-2,1308069E-003
27/08/2025 01:40:32.3641	2,185699128961559E+000	-2,0735073E-003
27/08/2025 01:40:37.3641	2,175498769140241E+000	-2,0926071E-003
27/08/2025 01:40:42.3641	2,170846990013118E+000	-2,1308069E-003
27/08/2025 01:40:47.3641	2,171378785753248E+000	-2,0353077E-003
27/08/2025 01:40:52.3641	2,169206296110154E+000	-2,1117069E-003
27/08/2025 01:40:57.3641	2,158401434516907E+000	-2,1881063E-003
27/08/2025 01:41:02.3641	2,156171644735331E+000	-2,1690065E-003
27/08/2025 01:41:07.3641	2,149091985988616E+000	-2,0544075E-003
27/08/2025 01:41:12.3641	2,145542561435697E+000	-2,0162079E-003
27/08/2025 01:41:17.3641	2,143047524023057E+000	-2,0544075E-003
27/08/2025 01:41:22.3641	2,145065483188624E+000	-2,1117069E-003
27/08/2025 01:41:27.3641	2,133626422500608E+000	-2,1499067E-003
27/08/2025 01:41:32.3641	2,129705163097382E+000	-2,1308069E-003
27/08/2025 01:41:37.3641	2,120535680437079E+000	-2,0926071E-003
27/08/2025 01:41:42.3641	2,116650610971449E+000	-2,0544075E-003
27/08/2025 01:41:47.3641	2,115577762794487E+000	-2,1117069E-003
27/08/2025 01:41:52.3641	2,112860150337220E+000	-2,0926071E-003
27/08/2025 01:41:57.3641	2,104816005706784E+000	-2,1308069E-003
27/08/2025 01:42:02.3641	2,103185818910596E+000	-2,1117069E-003
27/08/2025 01:42:07.3641	2,103510779571529E+000	-2,0926071E-003
27/08/2025 01:42:12.3641	2,092570624113080E+000	-2,0926071E-003
27/08/2025 01:42:17.3641	2,092987569284436E+000	-2,1499067E-003
27/08/2025 01:42:22.3641	2,082956820631026E+000	-2,1690065E-003
27/08/2025 01:42:27.3641	2,077957459211348E+000	-2,1117069E-003
27/08/2025 01:42:32.3641	2,071860405302040E+000	-2,0926071E-003
27/08/2025 01:42:37.3641	2,065157012557975E+000	-2,0735073E-003
27/08/2025 01:42:42.3641	2,063317362499234E+000	-2,1881063E-003
27/08/2025 01:42:47.3641	2,055417465496063E+000	-2,0544075E-003
27/08/2025 01:42:52.3641	2,056743136930465E+000	-2,1308069E-003
27/08/2025 01:42:57.3641	2,053154460144043E+000	-2,1308069E-003
27/08/2025 01:43:02.3641	2,045302599859237E+000	-2,1690065E-003
27/08/2025 01:43:07.3641	2,041065614891053E+000	-2,0735073E-003
27/08/2025 01:43:12.3641	2,035323447942730E+000	-2,1308069E-003
27/08/2025 01:43:17.3641	2,033317561817169E+000	-2,0544075E-003
27/08/2025 01:43:22.3641	2,026396892976763E+000	-1,9207089E-003
27/08/2025 01:43:27.3641	2,022597970080376E+000	-2,0926071E-003
27/08/2025 01:43:32.3641	2,014873204493519E+000	-2,2645055E-003
27/08/2025 01:43:37.3641	2,014572304844855E+000	-2,1499067E-003
27/08/2025 01:43:42.3641	2,009622324299812E+000	-2,0544075E-003
27/08/2025 01:43:47.3641	1,998353994584082E+000	-2,1308069E-003
27/08/2025 01:43:52.3641	1,992555768275260E+000	-2,1308069E-003
27/08/2025 01:43:57.3641	1,992555664277077E+000	-1,9971081E-003
27/08/2025 01:44:02.3641	1,992306977105139E+000	-2,1117069E-003
27/08/2025 01:44:07.3641	1,984322008275981E+000	-2,1308069E-003
27/08/2025 01:44:12.3641	1,982887964487075E+000	-2,1499067E-003
27/08/2025 01:44:17.3641	1,979564112544061E+000	-2,0353077E-003
27/08/2025 01:44:22.3641	1,971959194660187E+000	-2,2454057E-003
27/08/2025 01:44:27.3641	1,969740105056761E+000	-1,9971081E-003
27/08/2025 01:44:32.3641	1,963323383045193E+000	-2,0735073E-003
27/08/2025 01:44:37.3641	1,959133805322647E+000	-2,0735073E-003
27/08/2025 01:44:42.3641	1,953638360285755E+000	-2,1690065E-003
27/08/2025 01:44:47.3641	1,952294879865644E+000	-2,1881063E-003
27/08/2025 01:44:52.3641	1,943105499482151E+000	-2,0162079E-003
27/08/2025 01:44:57.3641	1,938180554938316E+000	-2,1499067E-003
27/08/2025 01:45:02.3641	1,937757448291777E+000	-2,1117069E-003
27/08/2025 01:45:07.3641	1,927331627106668E+000	-2,1308069E-003
27/08/2025 01:45:12.3641	1,919744701433174E+000	-2,1117069E-003
27/08/2025 01:45:17.3641	1,919510803318023E+000	-2,1499067E-003
27/08/2025 01:45:22.3641	1,917199099993706E+000	-2,1499067E-003
27/08/2025 01:45:27.3641	1,910225092554089E+000	-2,1499067E-003
27/08/2025 01:45:32.3641	1,903562804794310E+000	-2,1117069E-003
27/08/2025 01:45:37.3641	1,896051700592039E+000	-2,1308069E-003
27/08/2025 01:45:42.3641	1,896882263231269E+000	-2,0544075E-003
27/08/2025 01:45:47.3641	1,892869514083859E+000	-2,0926071E-003
27/08/2025 01:45:52.3641	1,885681927156444E+000	-2,1308069E-003
27/08/2025 01:45:57.3641	1,878707267069816E+000	-2,0735073E-003
27/08/2025 01:46:02.3641	1,876536095380779E+000	-1,9398087E-003
27/08/2025 01:46:07.3641	1,870475878858566E+000	-2,1308069E-003
27/08/2025 01:46:12.3641	1,858574755001068E+000	-1,9780083E-003
27/08/2025 01:46:17.3641	1,857153770089149E+000	-2,1117069E-003
27/08/2025 01:46:22.3641	1,851821821641920E+000	-2,0735073E-003
27/08/2025 01:46:27.3641	1,845160755228996E+000	-2,2072061E-003
27/08/2025 01:46:32.3641	1,842410760498041E+000	-2,0926071E-003
27/08/2025 01:46:37.3641	1,837896572566033E+000	-2,1308069E-003
27/08/2025 01:46:42.3641	1,839423525500298E+000	-2,1499067E-003
27/08/2025 01:46:47.3641	1,834352340960503E+000	-2,0735073E-003
27/08/2025 01:46:52.3641	1,822575234723089E+000	-2,1499067E-003
27/08/2025 01:46:57.3641	1,820363582158080E+000	-2,1499067E-003
27/08/2025 01:47:02.3641	1,818712296128268E+000	-2,0544075E-003
27/08/2025 01:47:07.3641	1,814754552435875E+000	-2,0735073E-003
27/08/2025 01:47:12.3641	1,811071246409412E+000	-2,0544075E-003
27/08/2025 01:47:17.3641	1,806189257240295E+000	-2,0926071E-003
27/08/2025 01:47:22.3641	1,805869840264318E+000	-2,0162079E-003
27/08/2025 01:47:27.3641	1,794169868898386E+000	-2,0544075E-003
27/08/2025 01:47:32.3641	1,796225154590601E+000	-2,1308069E-003
27/08/2025 01:47:37.3641	1,788670480489728E+000	-2,1499067E-003
27/08/2025 01:47:42.3641	1,782699426412581E+000	-2,0926071E-003
27/08/2025 01:47:47.3641	1,777146069765088E+000	-2,0735073E-003
27/08/2025 01:47:52.3641	1,775275753021241E+000	-2,0162079E-003
27/08/2025 01:47:57.3641	1,773773616695404E+000	-2,2072061E-003
27/08/2025 01:48:02.3641	1,768391519927977E+000	-2,1690065E-003
27/08/2025 01:48:07.3641	1,766240908098219E+000	-2,0544075E-003
27/08/2025 01:48:12.3641	1,764105645108216E+000	-2,0544075E-003
27/08/2025 01:48:17.3641	1,753546373653410E+000	-2,0353077E-003
27/08/2025 01:48:22.3641	1,748393676710128E+000	-2,0926071E-003
27/08/2025 01:48:27.3641	1,743695824170103E+000	-2,1499067E-003
27/08/2025 01:48:32.3641	1,746632173895833E+000	-2,0162079E-003
27/08/2025 01:48:37.3641	1,739639737844467E+000	-2,1690065E-003
27/08/2025 01:48:42.3641	1,736093344473836E+000	-2,0353077E-003
27/08/2025 01:48:47.3641	1,732418395209308E+000	-2,1308069E-003
27/08/2025 01:48:52.3641	1,729738642287252E+000	-2,1308069E-003
27/08/2025 01:48:57.3641	1,720791483712194E+000	-2,1499067E-003
27/08/2025 01:49:02.3641	1,715732678198814E+000	-2,1499067E-003
27/08/2025 01:49:07.3641	1,708039102411270E+000	-2,0162079E-003
27/08/2025 01:49:12.3641	1,711241069006920E+000	-2,1499067E-003
27/08/2025 01:49:17.3641	1,706135656356810E+000	-2,1690065E-003
27/08/2025 01:49:22.3641	1,696517552947995E+000	-2,0544075E-003
27/08/2025 01:49:27.3641	1,700197862172125E+000	-2,1690065E-003
27/08/2025 01:49:32.3641	1,694187677121160E+000	-2,0544075E-003
27/08/2025 01:49:37.3641	1,687103007817267E+000	-2,1690065E-003
27/08/2025 01:49:42.3641	1,686579290103911E+000	-2,1499067E-003
27/08/2025 01:49:47.3641	1,682307743883131E+000	-2,0353077E-003
27/08/2025 01:49:52.3641	1,674442088723179E+000	-2,2072061E-003
27/08/2025 01:49:57.3641	1,672345258545867E+000	-2,1690065E-003
27/08/2025 01:50:02.3641	1,670630259490011E+000	-2,1308069E-003
27/08/2025 01:50:07.3641	1,665734209728242E+000	-2,1499067E-003
27/08/2025 01:50:12.3641	1,662260901975631E+000	-2,0735073E-003
27/08/2025 01:50:17.3641	1,655287814068792E+000	-2,0735073E-003
27/08/2025 01:50:22.3641	1,661516245031358E+000	-2,1690065E-003
27/08/2025 01:50:27.3641	1,653793707752227E+000	-2,1308069E-003
27/08/2025 01:50:32.3641	1,645770072746277E+000	-2,2454057E-003
27/08/2025 01:50:37.3641	1,639380845093726E+000	-2,1499067E-003
27/08/2025 01:50:42.3641	1,640694826817512E+000	-2,0926071E-003
27/08/2025 01:50:47.3641	1,635998458266258E+000	-2,1308069E-003
27/08/2025 01:50:52.3641	1,630275639319418E+000	-2,1117069E-003
27/08/2025 01:50:57.3641	1,622760932159419E+000	-2,0544075E-003
27/08/2025 01:51:02.3641	1,625124953460691E+000	-2,0926071E-003
27/08/2025 01:51:07.3641	1,614066373372077E+000	-2,0544075E-003
27/08/2025 01:51:12.3641	1,610442542243002E+000	-2,0926071E-003
27/08/2025 01:51:17.3641	1,607355089259148E+000	-2,1308069E-003
27/08/2025 01:51:22.3641	1,602132895803452E+000	-2,1117069E-003
27/08/2025 01:51:27.3641	1,603590139412879E+000	-2,1690065E-003
27/08/2025 01:51:32.3641	1,600130007600782E+000	-2,1117069E-003
27/08/2025 01:51:37.3641	1,594496121907234E+000	-2,1690065E-003
27/08/2025 01:51:42.3641	1,593091352891921E+000	-2,1881063E-003
27/08/2025 01:51:47.3641	1,587524801754949E+000	-2,1308069E-003
27/08/2025 01:51:52.3641	1,585731637787818E+000	-2,0544075E-003
27/08/2025 01:51:57.3641	1,581701375246048E+000	-2,0735073E-003
27/08/2025 01:52:02.3641	1,575623250365258E+000	-2,1117069E-003
27/08/2025 01:52:07.3641	1,570408702588081E+000	-2,2072061E-003
27/08/2025 01:52:12.3641	1,566852680063247E+000	-2,1117069E-003
27/08/2025 01:52:17.3641	1,565563338112829E+000	-2,1499067E-003
27/08/2025 01:52:22.3641	1,561067315435409E+000	-2,0735073E-003
27/08/2025 01:52:27.3641	1,559868408608438E+000	-2,0926071E-003
27/08/2025 01:52:32.3641	1,556357966017723E+000	-2,1117069E-003
27/08/2025 01:52:37.3641	1,549781919050217E+000	-2,1308069E-003
27/08/2025 01:52:42.3641	1,543113150358199E+000	-2,0544075E-003
27/08/2025 01:52:47.3641	1,539467223405837E+000	-2,1690065E-003
27/08/2025 01:52:52.3641	1,536249021506309E+000	-2,1117069E-003
27/08/2025 01:52:57.3641	1,535530802726746E+000	-2,1117069E-003
27/08/2025 01:53:02.3641	1,532206278586386E+000	-2,2263059E-003
27/08/2025 01:53:07.3641	1,530436369347573E+000	-2,1499067E-003
27/08/2025 01:53:12.3641	1,520348296451568E+000	-1,9971081E-003
27/08/2025 01:53:17.3641	1,530661969757078E+000	-2,1499067E-003
27/08/2025 01:53:22.3641	1,516724325346946E+000	-2,1881063E-003
27/08/2025 01:53:27.3641	1,511161367821689E+000	-2,0735073E-003
27/08/2025 01:53:32.3641	1,512466093540191E+000	-2,0926071E-003
27/08/2025 01:53:37.3641	1,506170618963242E+000	-2,0353077E-003
27/08/2025 01:53:42.3641	1,505032076120376E+000	-2,0544075E-003
27/08/2025 01:53:47.3641	1,499262439465523E+000	-2,0735073E-003
27/08/2025 01:53:52.3641	1,498154089117048E+000	-2,0735073E-003
27/08/2025 01:53:57.3641	1,492759721946715E+000	-2,0926071E-003
27/08/2025 01:54:02.3641	1,482890506196021E+000	-2,1117069E-003
27/08/2025 01:54:07.3641	1,483346668624876E+000	-2,0735073E-003
27/08/2025 01:54:12.3641	1,477363086557387E+000	-2,0926071E-003
27/08/2025 01:54:17.3641	1,480784269046783E+000	-2,1117069E-003
27/08/2025 01:54:22.3641	1,475110431838035E+000	-2,1499067E-003
27/08/2025 01:54:27.3641	1,468088052511213E+000	-2,0162079E-003
27/08/2025 01:54:32.3641	1,469230459499357E+000	-2,1690065E-003
27/08/2025 01:54:37.3641	1,465063808894157E+000	-2,1117069E-003
27/08/2025 01:54:42.3641	1,461511252737045E+000	-2,1690065E-003
27/08/2025 01:54:47.3641	1,457503531885147E+000	-2,1117069E-003
27/08/2025 01:54:52.3641	1,453893862581253E+000	-2,1117069E-003
27/08/2025 01:54:57.3641	1,449092192745205E+000	-2,1690065E-003
27/08/2025 01:55:02.3641	1,452960562038420E+000	-2,2454057E-003
27/08/2025 01:55:07.3641	1,448663206195832E+000	-2,0735073E-003
27/08/2025 01:55:12.3641	1,442629601407049E+000	-2,0735073E-003
27/08/2025 01:55:17.3641	1,442395913553238E+000	-2,0735073E-003
27/08/2025 01:55:22.3641	1,436520256614681E+000	-2,1308069E-003
27/08/2025 01:55:27.3641	1,434422034502028E+000	-2,1117069E-003
27/08/2025 01:55:32.3641	1,432753118491171E+000	-2,1690065E-003
27/08/2025 01:55:37.3641	1,433836341094971E+000	-2,0735073E-003
27/08/2025 01:55:42.3641	1,425949450325966E+000	-2,1117069E-003
27/08/2025 01:55:47.3641	1,427593689322471E+000	-2,1308069E-003
27/08/2025 01:55:52.3641	1,419513958692550E+000	-2,1690065E-003
27/08/2025 01:55:57.3641	1,419848961353299E+000	-2,1117069E-003
27/08/2025 01:56:02.3641	1,415992659521098E+000	-2,2072061E-003
27/08/2025 01:56:07.3641	1,412089702033997E+000	-2,1690065E-003
27/08/2025 01:56:12.3641	1,411960325050352E+000	-2,1690065E-003
27/08/2025 01:56:17.3641	1,401746280455589E+000	-2,0544075E-003
27/08/2025 01:56:22.3641	1,401385447645186E+000	-2,1690065E-003
27/08/2025 01:56:27.3641	1,389218791413306E+000	-2,1881063E-003
27/08/2025 01:56:32.3641	1,392198679113388E+000	-2,0735073E-003
27/08/2025 01:56:37.3641	1,388532966899872E+000	-2,1499067E-003
27/08/2025 01:56:42.3641	1,379124620151519E+000	-2,0544075E-003
27/08/2025 01:56:47.3641	1,382002960300444E+000	-2,0544075E-003
27/08/2025 01:56:52.3641	1,379510967946050E+000	-2,0735073E-003
27/08/2025 01:56:57.3641	1,377144120764731E+000	-2,1690065E-003
27/08/2025 01:57:02.3641	1,371699592638015E+000	-2,2072061E-003
27/08/2025 01:57:07.3641	1,369443158674240E+000	-2,0735073E-003
27/08/2025 01:57:12.3641	1,368368066024779E+000	-2,1499067E-003
27/08/2025 01:57:17.3641	1,365923915243147E+000	-2,1308069E-003
27/08/2025 01:57:22.3641	1,358020094847678E+000	-2,1117069E-003
27/08/2025 01:57:27.3641	1,360859841656685E+000	-2,0735073E-003
27/08/2025 01:57:32.3641	1,349670147776603E+000	-2,0926071E-003
27/08/2025 01:57:37.3641	1,353531615090368E+000	-2,0926071E-003
27/08/2025 01:57:42.3641	1,344739822483062E+000	-2,0353077E-003
27/08/2025 01:57:47.3641	1,341665354394912E+000	-2,1499067E-003
27/08/2025 01:57:52.3641	1,340827920985221E+000	-2,1690065E-003
27/08/2025 01:57:57.3641	1,337188689780234E+000	-2,0544075E-003
27/08/2025 01:58:02.3641	1,337080729055404E+000	-2,1117069E-003
27/08/2025 01:58:07.3641	1,332873488759994E+000	-2,0735073E-003
27/08/2025 01:58:12.3641	1,334234490752220E+000	-2,1308069E-003
27/08/2025 01:58:17.3641	1,322761020183563E+000	-2,1499067E-003
27/08/2025 01:58:22.3641	1,316426799416540E+000	-2,1308069E-003
27/08/2025 01:58:27.3641	1,316123849987983E+000	-2,0735073E-003
27/08/2025 01:58:32.3641	1,313588373970985E+000	-2,1117069E-003
27/08/2025 01:58:37.3641	1,309642279529569E+000	-2,2454057E-003
27/08/2025 01:58:42.3641	1,309870922899247E+000	-2,1499067E-003
27/08/2025 01:58:47.3641	1,307671644806861E+000	-2,0926071E-003
27/08/2025 01:58:52.3641	1,303918573760987E+000	-2,0544075E-003
27/08/2025 01:58:57.3641	1,297557217073440E+000	-2,1308069E-003
27/08/2025 01:59:02.3641	1,292310575938224E+000	-2,0735073E-003
27/08/2025 01:59:07.3641	1,292051311826706E+000	-2,1499067E-003
27/08/2025 01:59:12.3641	1,288813909077643E+000	-2,0926071E-003
27/08/2025 01:59:17.3641	1,283631483888623E+000	-2,1308069E-003
27/08/2025 01:59:22.3641	1,286957581377028E+000	-2,1690065E-003
27/08/2025 01:59:27.3641	1,281462668895721E+000	-2,1117069E-003
27/08/2025 01:59:32.3641	1,279247965216637E+000	-2,1308069E-003
27/08/2025 01:59:37.3641	1,274877209663389E+000	-2,1117069E-003
27/08/2025 01:59:42.3641	1,272299757266045E+000	-2,0353077E-003
27/08/2025 01:59:47.3641	1,268768885231017E+000	-2,1499067E-003
27/08/2025 01:59:52.3641	1,267461617493630E+000	-2,0544075E-003
27/08/2025 01:59:57.3641	1,259387259221076E+000	-2,1117069E-003
27/08/2025 02:00:02.3641	1,255550103735924E+000	-2,2454057E-003
27/08/2025 02:00:07.3641	1,257181406593323E+000	-2,1881063E-003
27/08/2025 02:00:12.3641	1,256647268390651E+000	-2,1690065E-003
27/08/2025 02:00:17.3641	1,250676187944411E+000	-2,0544075E-003
27/08/2025 02:00:22.3641	1,241277651882172E+000	-2,0544075E-003
27/08/2025 02:00:27.3641	1,237187071013448E+000	-2,1499067E-003
27/08/2025 02:00:32.3641	1,237461689662933E+000	-2,2263059E-003
27/08/2025 02:00:37.3641	1,237359778714179E+000	-2,0544075E-003
27/08/2025 02:00:42.3641	1,233689344882961E+000	-2,2072061E-003
27/08/2025 02:00:47.3641	1,226686007475853E+000	-2,1117069E-003
27/08/2025 02:00:52.3641	1,230779646062851E+000	-2,1117069E-003
27/08/2025 02:00:57.3641	1,226907343530655E+000	-2,2072061E-003
27/08/2025 02:01:02.3641	1,220977065300942E+000	-2,0735073E-003
27/08/2025 02:01:07.3641	1,222854857301712E+000	-2,0544075E-003
27/08/2025 02:01:12.3641	1,220522127628325E+000	-1,9780083E-003
27/08/2025 02:01:17.3641	1,218264549803735E+000	-2,1117069E-003
27/08/2025 02:01:22.3641	1,215915877366065E+000	-2,1308069E-003
27/08/2025 02:01:27.3641	1,212098264884947E+000	-2,0162079E-003
27/08/2025 02:01:32.3641	1,213306292057037E+000	-2,2454057E-003
27/08/2025 02:01:37.3641	1,206439684700964E+000	-2,1308069E-003
27/08/2025 02:01:42.3641	1,201167823123932E+000	-2,2072061E-003
27/08/2025 02:01:47.3641	1,204637144780159E+000	-2,0353077E-003
27/08/2025 02:01:52.3641	1,200570062732695E+000	-2,1117069E-003
27/08/2025 02:01:57.3641	1,195853500843047E+000	-2,0544075E-003
27/08/2025 02:02:02.3641	1,194313163709640E+000	-2,2263059E-003
27/08/2025 02:02:07.3641	1,188298008394240E+000	-1,9398087E-003
27/08/2025 02:02:12.3641	1,185440856266020E+000	-2,1690065E-003
27/08/2025 02:02:17.3641	1,183642591524123E+000	-2,0162079E-003
27/08/2025 02:02:22.3641	1,176911737799642E+000	-2,0735073E-003
27/08/2025 02:02:27.3641	1,182834999299049E+000	-2,1308069E-003
27/08/2025 02:02:32.3641	1,179720780539512E+000	-2,1690065E-003
27/08/2025 02:02:37.3641	1,175754413747788E+000	-2,0926071E-003
27/08/2025 02:02:42.3641	1,170523004961012E+000	-2,1117069E-003
27/08/2025 02:02:47.3641	1,171480496835709E+000	-2,0926071E-003
27/08/2025 02:02:52.3641	1,168262398743625E+000	-2,0926071E-003
27/08/2025 02:02:57.3641	1,162770612788201E+000	-2,2072061E-003
27/08/2025 02:03:02.3641	1,162785253906250E+000	-2,0735073E-003
27/08/2025 02:03:07.3641	1,158381082177161E+000	-2,0544075E-003
27/08/2025 02:03:12.3641	1,149956809949875E+000	-2,1308069E-003
27/08/2025 02:03:17.3641	1,150571986079214E+000	-2,0926071E-003
27/08/2025 02:03:22.3641	1,147191140055655E+000	-2,1499067E-003
27/08/2025 02:03:27.3641	1,144963840556144E+000	-1,9780083E-003
27/08/2025 02:03:32.3641	1,139311183571816E+000	-2,1308069E-003
27/08/2025 02:03:37.3641	1,138140367794033E+000	-2,1117069E-003
27/08/2025 02:03:42.3641	1,144152875638008E+000	-2,0926071E-003
27/08/2025 02:03:47.3641	1,131709328198433E+000	-2,1308069E-003
27/08/2025 02:03:52.3641	1,123258268165586E+000	-2,1117069E-003
27/08/2025 02:03:57.3641	1,125601489758491E+000	-2,1881063E-003
27/08/2025 02:04:02.3641	1,118371570682523E+000	-2,1308069E-003
27/08/2025 02:04:07.3641	1,117179784846304E+000	-2,0926071E-003
27/08/2025 02:04:12.3641	1,110912814593314E+000	-2,1117069E-003
27/08/2025 02:04:17.3641	1,114992245459556E+000	-2,1499067E-003
27/08/2025 02:04:22.3641	1,110689982509612E+000	-2,0735073E-003
27/08/2025 02:04:27.3641	1,103579616093635E+000	-2,1690065E-003
27/08/2025 02:04:32.3641	1,106857677769659E+000	-1,9971081E-003
27/08/2025 02:04:37.3641	1,098872420001030E+000	-2,0162079E-003
27/08/2025 02:04:42.3641	1,101433654022216E+000	-2,2072061E-003
27/08/2025 02:04:47.3641	1,093895364379879E+000	-2,1881063E-003
27/08/2025 02:04:52.3641	1,090833810949324E+000	-2,2263059E-003
27/08/2025 02:04:57.3641	1,086854571533203E+000	-2,1690065E-003
27/08/2025 02:05:02.3641	1,086549313926696E+000	-2,0162079E-003
27/08/2025 02:05:07.3641	1,080976476335525E+000	-2,1117069E-003
27/08/2025 02:05:12.3641	1,080586171412468E+000	-2,0162079E-003
27/08/2025 02:05:17.3641	1,077835675978660E+000	-2,0926071E-003
27/08/2025 02:05:22.3641	1,074189910316466E+000	-2,1690065E-003
27/08/2025 02:05:27.3641	1,067969101619719E+000	-2,2072061E-003
27/08/2025 02:05:32.3641	1,067924940586089E+000	-2,1308069E-003
27/08/2025 02:05:37.3641	1,077581908488272E+000	-2,1308069E-003
27/08/2025 02:05:42.3641	1,067172540163993E+000	-2,0735073E-003
27/08/2025 02:05:47.3641	1,065552454733847E+000	-2,0926071E-003
27/08/2025 02:05:52.3641	1,058141587114334E+000	-2,2072061E-003
27/08/2025 02:05:57.3641	1,058293464970588E+000	-2,1308069E-003
27/08/2025 02:06:02.3641	1,063438982152938E+000	-2,1499067E-003
27/08/2025 02:06:07.3641	1,055866447758675E+000	-2,0926071E-003
27/08/2025 02:06:12.3641	1,054942997622486E+000	-2,0735073E-003
27/08/2025 02:06:17.3641	1,053459735298157E+000	-2,0353077E-003
27/08/2025 02:06:22.3640	1,046338235640523E+000	-2,0544075E-003
27/08/2025 02:06:27.3640	1,044090949511528E+000	-2,0926071E-003
27/08/2025 02:06:32.3640	1,044703633379935E+000	-2,0926071E-003
27/08/2025 02:06:37.3640	1,037418127155304E+000	-2,0735073E-003
27/08/2025 02:06:42.3640	1,040755060672758E+000	-2,1881063E-003
27/08/2025 02:06:47.3640	1,036826254987717E+000	-2,0735073E-003
27/08/2025 02:06:52.3640	1,033892009639739E+000	-2,1308069E-003
27/08/2025 02:06:57.3640	1,037562679195403E+000	-2,1117069E-003
27/08/2025 02:07:02.3640	1,029314658045767E+000	-2,1499067E-003
27/08/2025 02:07:07.3640	1,027729964566230E+000	-2,0544075E-003
27/08/2025 02:07:12.3640	1,024457940483092E+000	-1,9971081E-003
27/08/2025 02:07:17.3640	1,021328580999374E+000	-2,1499067E-003
27/08/2025 02:07:22.3640	1,020106386852262E+000	-2,0162079E-003
27/08/2025 02:07:27.3640	1,016471380984783E+000	-2,1308069E-003
27/08/2025 02:07:32.3640	1,011762186777588E+000	-2,1117069E-003
27/08/2025 02:07:37.3640	1,008157828199863E+000	-2,0735073E-003
27/08/2025 02:07:42.3640	1,007855156815051E+000	-2,1308069E-003
27/08/2025 02:07:47.3640	1,004555574393272E+000	-2,1117069E-003
27/08/2025 02:07:52.3640	1,001750612854956E+000	-2,0544075E-003
27/08/2025 02:07:57.3640	9,981581403732296E-001	-2,0162079E-003
27/08/2025 02:08:02.3640	9,968291573286052E-001	-2,0926071E-003
27/08/2025 02:08:07.3640	9,932543474912645E-001	-2,2072061E-003
27/08/2025 02:08:12.3640	9,947952322363847E-001	-2,1117069E-003
27/08/2025 02:08:17.3640	9,896325699806194E-001	-2,1499067E-003
27/08/2025 02:08:22.3640	9,888742216706277E-001	-2,1690065E-003
27/08/2025 02:08:27.3640	9,871760830521588E-001	-2,1117069E-003
27/08/2025 02:08:32.3640	9,908942378878578E-001	-2,0735073E-003
27/08/2025 02:08:37.3640	9,876628772616378E-001	-2,1690065E-003
27/08/2025 02:08:42.3640	9,849326909542064E-001	-1,9207089E-003
27/08/2025 02:08:47.3640	9,856328018665295E-001	-2,1308069E-003
27/08/2025 02:08:52.3640	9,835019042372704E-001	-2,0544075E-003
27/08/2025 02:08:57.3640	9,787922358632084E-001	-2,0544075E-003
27/08/2025 02:09:02.3640	9,775174528479553E-001	-2,1308069E-003
27/08/2025 02:09:07.3640	9,776007232427588E-001	-2,1499067E-003
27/08/2025 02:09:12.3640	9,731738750338543E-001	-2,1690065E-003
27/08/2025 02:09:17.3640	9,692189270973195E-001	-2,0353077E-003
27/08/2025 02:09:22.3640	9,580757437705962E-001	-2,1117069E-003
27/08/2025 02:09:27.3640	9,651081120252591E-001	-1,9016090E-003
27/08/2025 02:09:32.3640	9,594675697565052E-001	-2,1117069E-003
27/08/2025 02:09:37.3640	9,534180499076825E-001	-2,2072061E-003
27/08/2025 02:09:42.3640	9,531251244664189E-001	-2,1308069E-003
27/08/2025 02:09:47.3640	9,525396058559412E-001	-2,1881063E-003
27/08/2025 02:09:52.3640	9,511517402410501E-001	-2,0735073E-003
27/08/2025 02:09:57.3640	9,487865377187727E-001	-2,0926071E-003
27/08/2025 02:10:02.3640	9,437064824938766E-001	-2,1499067E-003
27/08/2025 02:10:07.3640	9,386202823996541E-001	-2,0735073E-003
27/08/2025 02:10:12.3640	9,378634985566130E-001	-1,9971081E-003
27/08/2025 02:10:17.3640	9,343572420597077E-001	-2,0926071E-003
27/08/2025 02:10:22.3640	9,313508343577381E-001	-2,0926071E-003
27/08/2025 02:10:27.3640	9,352523400187458E-001	-2,0926071E-003
27/08/2025 02:10:32.3640	9,287589000105854E-001	-2,0544075E-003
27/08/2025 02:10:37.3640	9,287254431247689E-001	-2,0926071E-003
27/08/2025 02:10:42.3640	9,336629694581013E-001	-2,1308069E-003
27/08/2025 02:10:47.3640	9,290479611039153E-001	-2,1117069E-003
27/08/2025 02:10:52.3640	9,233648562550520E-001	-2,1690065E-003
27/08/2025 02:10:57.3640	9,206967796921717E-001	-2,1499067E-003
27/08/2025 02:11:02.3640	9,247307520627963E-001	-2,2072061E-003
27/08/2025 02:11:07.3640	9,171531022310226E-001	-2,0735073E-003
27/08/2025 02:11:12.3640	9,145006849646560E-001	-2,0926071E-003
27/08/2025 02:11:17.3640	9,121251458883286E-001	-2,1308069E-003
27/08/2025 02:11:22.3640	9,182244691252688E-001	-2,1881063E-003
27/08/2025 02:11:27.3640	9,131910734176634E-001	-2,1881063E-003
27/08/2025 02:11:32.3640	9,057758197307582E-001	-2,0544075E-003
27/08/2025 02:11:37.3640	9,041389337420469E-001	-2,1117069E-003
27/08/2025 02:11:42.3640	9,035540276408192E-001	-2,2072061E-003
27/08/2025 02:11:47.3640	9,009882476449000E-001	-2,0162079E-003
27/08/2025 02:11:52.3640	8,994820869684208E-001	-2,1499067E-003
27/08/2025 02:11:57.3640	8,970309759259223E-001	-2,1690065E-003
27/08/2025 02:12:02.3640	8,960056612253169E-001	-2,1499067E-003
27/08/2025 02:12:07.3640	8,880008168816573E-001	-2,1690065E-003
27/08/2025 02:12:12.3640	8,813183522462822E-001	-2,1308069E-003
27/08/2025 02:12:17.3640	8,833838270068153E-001	-2,1308069E-003
27/08/2025 02:12:22.3640	8,818732656836517E-001	-1,9780083E-003
27/08/2025 02:12:27.3640	8,813368451356887E-001	-2,2072061E-003
27/08/2025 02:12:32.3640	8,765097772240633E-001	-2,1499067E-003
27/08/2025 02:12:37.3640	8,754622684240303E-001	-2,2072061E-003
27/08/2025 02:12:42.3640	8,707088337182993E-001	-2,0926071E-003
27/08/2025 02:12:47.3640	8,698701559662823E-001	-1,9398087E-003
27/08/2025 02:12:52.3640	8,718134480595552E-001	-2,1117069E-003
27/08/2025 02:12:57.3640	8,704592154145221E-001	-2,0735073E-003
27/08/2025 02:13:02.3640	8,688255796909310E-001	-2,0353077E-003
27/08/2025 02:13:07.3640	8,636005771875368E-001	-2,0926071E-003
27/08/2025 02:13:12.3640	8,605602754354482E-001	-2,0926071E-003
27/08/2025 02:13:17.3640	8,637176453232751E-001	-2,1117069E-003
27/08/2025 02:13:22.3640	8,647244289755811E-001	-2,1308069E-003
27/08/2025 02:13:27.3640	8,611016658782944E-001	-2,0926071E-003
27/08/2025 02:13:32.3640	8,604774863958351E-001	-2,1690065E-003
27/08/2025 02:13:37.3640	8,603403267383563E-001	-2,0926071E-003
27/08/2025 02:13:42.3640	8,567393962144849E-001	-1,9971081E-003
27/08/2025 02:13:47.3640	8,537303538322405E-001	-2,1690065E-003
27/08/2025 02:13:52.3640	8,546019659638402E-001	-2,0162079E-003
27/08/2025 02:13:57.3640	8,511232424736015E-001	-2,0544075E-003
27/08/2025 02:14:02.3640	8,431434982895851E-001	-2,1117069E-003
27/08/2025 02:14:07.3640	8,431277033925042E-001	-2,1499067E-003
27/08/2025 02:14:12.3640	8,362401795506473E-001	-2,1690065E-003
27/08/2025 02:14:17.3640	8,411464819431309E-001	-2,0544075E-003
27/08/2025 02:14:22.3640	8,355980041265481E-001	-2,1117069E-003
27/08/2025 02:14:27.3640	8,372517706632578E-001	-2,0162079E-003
27/08/2025 02:14:32.3640	8,333866519689561E-001	-2,1690065E-003
27/08/2025 02:14:37.3640	8,338498357415194E-001	-2,0926071E-003
27/08/2025 02:14:42.3640	8,229577867627107E-001	-2,0162079E-003
27/08/2025 02:14:47.3640	8,221633624315245E-001	-2,1117069E-003
27/08/2025 02:14:52.3640	8,221795308709137E-001	-2,1117069E-003
27/08/2025 02:14:57.3640	8,231934964060779E-001	-2,1117069E-003
27/08/2025 02:15:02.3640	8,155247141957265E-001	-2,1117069E-003
27/08/2025 02:15:07.3640	8,158761684894564E-001	-2,0926071E-003
27/08/2025 02:15:12.3640	8,201320805907248E-001	-2,1308069E-003
27/08/2025 02:15:17.3640	8,186247904777524E-001	-2,0926071E-003
27/08/2025 02:15:22.3640	8,144728566646575E-001	-2,1308069E-003
27/08/2025 02:15:27.3640	8,132309184193609E-001	-2,1117069E-003
27/08/2025 02:15:32.3640	8,099756987094864E-001	-2,0353077E-003
27/08/2025 02:15:37.3640	8,124601666331284E-001	-2,1690065E-003
27/08/2025 02:15:42.3640	8,052907200932484E-001	-2,2072061E-003
27/08/2025 02:15:47.3640	8,080544653773298E-001	-2,1117069E-003
27/08/2025 02:15:52.3640	8,037359145402907E-001	-2,0926071E-003
27/08/2025 02:15:57.3640	8,023767365097996E-001	-2,0162079E-003
27/08/2025 02:16:02.3640	7,997362062454219E-001	-2,1308069E-003
27/08/2025 02:16:07.3640	7,961858562827109E-001	-2,0162079E-003
27/08/2025 02:16:12.3640	7,908922227382664E-001	-2,0735073E-003
27/08/2025 02:16:17.3640	7,945768988132471E-001	-2,0926071E-003
27/08/2025 02:16:22.3640	7,917005451440808E-001	-2,0735073E-003
27/08/2025 02:16:27.3640	7,936298757910727E-001	-2,2645055E-003
27/08/2025 02:16:32.3640	7,877324699163433E-001	-2,0926071E-003
27/08/2025 02:16:37.3640	7,835462689280510E-001	-2,1308069E-003
27/08/2025 02:16:42.3640	7,819768291234963E-001	-2,2263059E-003
27/08/2025 02:16:47.3640	7,807275415658950E-001	-2,1117069E-003
27/08/2025 02:16:52.3640	7,805984668970103E-001	-2,1308069E-003
27/08/2025 02:16:57.3640	7,791401205182074E-001	-2,0162079E-003
27/08/2025 02:17:02.3640	7,758009256958953E-001	-2,0735073E-003
27/08/2025 02:17:07.3640	7,789694248676291E-001	-2,0544075E-003
27/08/2025 02:17:12.3640	7,709376907467833E-001	-2,0926071E-003
27/08/2025 02:17:17.3640	7,694018462896346E-001	-2,1499067E-003
27/08/2025 02:17:22.3640	7,718511672854422E-001	-2,0353077E-003
27/08/2025 02:17:27.3640	7,712622990131370E-001	-2,1690065E-003
27/08/2025 02:17:32.3640	7,678731450796121E-001	-2,1690065E-003
27/08/2025 02:17:37.3640	7,649613590121269E-001	-2,2072061E-003
27/08/2025 02:17:42.3640	7,592950399279594E-001	-2,1881063E-003
27/08/2025 02:17:47.3640	7,627369890809055E-001	-2,0162079E-003
27/08/2025 02:17:52.3640	7,599520813584322E-001	-2,2263059E-003
27/08/2025 02:17:57.3640	7,593614104270916E-001	-2,1690065E-003
27/08/2025 02:18:02.3640	7,586538591504102E-001	-2,1117069E-003
27/08/2025 02:18:07.3640	7,585575354218488E-001	-2,0926071E-003
27/08/2025 02:18:12.3640	7,511260870814329E-001	-2,0926071E-003
27/08/2025 02:18:17.3640	7,460928169608110E-001	-2,0353077E-003
27/08/2025 02:18:22.3640	7,490643424153323E-001	-2,1499067E-003
27/08/2025 02:18:27.3640	7,525880217194558E-001	-2,1308069E-003
27/08/2025 02:18:32.3640	7,494464370131491E-001	-2,1308069E-003
27/08/2025 02:18:37.3640	7,500510446786866E-001	-2,1499067E-003
27/08/2025 02:18:42.3640	7,437770177125920E-001	-2,1690065E-003
27/08/2025 02:18:47.3640	7,298307435870169E-001	-2,1499067E-003
27/08/2025 02:18:52.3640	7,298193660855290E-001	-2,1499067E-003
27/08/2025 02:18:57.3640	7,345575481057161E-001	-2,1117069E-003
27/08/2025 02:19:02.3640	7,322437609076502E-001	-2,1308069E-003
27/08/2025 02:19:07.3640	7,266182675004007E-001	-2,0926071E-003
27/08/2025 02:19:12.3640	7,273495023727410E-001	-2,1308069E-003
27/08/2025 02:19:17.3640	7,265707289934156E-001	-2,0735073E-003
27/08/2025 02:19:22.3640	7,173141732931132E-001	-2,0926071E-003
27/08/2025 02:19:27.3640	7,210117014527320E-001	-1,9971081E-003
27/08/2025 02:19:32.3640	7,181078653335566E-001	-2,0926071E-003
27/08/2025 02:19:37.3640	7,194318957805628E-001	-2,1117069E-003
27/08/2025 02:19:42.3640	7,209277981281268E-001	-2,0544075E-003
27/08/2025 02:19:47.3640	7,151504002094260E-001	-2,1499067E-003
27/08/2025 02:19:52.3640	7,163601950764651E-001	-2,1881063E-003
27/08/2025 02:19:57.3640	7,139348338603972E-001	-2,0735073E-003
27/08/2025 02:20:02.3640	7,112797567129130E-001	-2,1308069E-003
27/08/2025 02:20:07.3640	7,110515369057646E-001	-2,1881063E-003
27/08/2025 02:20:12.3640	7,050113701105116E-001	-2,1308069E-003
27/08/2025 02:20:17.3640	7,049375841140741E-001	-2,1881063E-003
27/08/2025 02:20:22.3640	7,028564137697213E-001	-2,1308069E-003
27/08/2025 02:20:27.3640	7,035040436148634E-001	-2,1117069E-003
27/08/2025 02:20:32.3640	6,968876589775084E-001	-2,1881063E-003
27/08/2025 02:20:37.3640	6,989601747751237E-001	-1,9971081E-003
27/08/2025 02:20:42.3640	6,978084536671636E-001	-2,1308069E-003
27/08/2025 02:20:47.3640	6,919896503806111E-001	-2,1308069E-003
27/08/2025 02:20:52.3640	6,959891489505754E-001	-2,1308069E-003
27/08/2025 02:20:57.3640	6,907936413526530E-001	-2,0926071E-003
27/08/2025 02:21:02.3640	6,905634826660148E-001	-2,0162079E-003
27/08/2025 02:21:07.3640	6,944940029263496E-001	-2,1117069E-003
27/08/2025 02:21:12.3640	6,889920225620270E-001	-2,2263059E-003
27/08/2025 02:21:17.3640	6,780229201674461E-001	-2,1308069E-003
27/08/2025 02:21:22.3640	6,852869300842279E-001	-2,0735073E-003
27/08/2025 02:21:27.3640	6,823343222379670E-001	-2,1499067E-003
27/08/2025 02:21:32.3640	6,752927324652671E-001	-2,0735073E-003
27/08/2025 02:21:37.3640	6,714072218179703E-001	-2,1308069E-003
27/08/2025 02:21:42.3640	6,763346420168865E-001	-2,1117069E-003
27/08/2025 02:21:47.3640	6,729522572040541E-001	-2,0735073E-003
27/08/2025 02:21:52.3640	6,744247725129124E-001	-2,0735073E-003
27/08/2025 02:21:57.3640	6,748542611122126E-001	-2,1881063E-003
27/08/2025 02:22:02.3640	6,689649297833440E-001	-2,0926071E-003
27/08/2025 02:22:07.3640	6,716952170610426E-001	-2,1308069E-003
27/08/2025 02:22:12.3640	6,675043620944017E-001	-2,1117069E-003
27/08/2025 02:22:17.3640	6,677218642950058E-001	-2,2072061E-003
27/08/2025 02:22:22.3640	6,686869818806649E-001	-2,1499067E-003
27/08/2025 02:22:27.3640	6,675565230488777E-001	-2,1690065E-003
27/08/2025 02:22:32.3640	6,605457108020780E-001	-2,1308069E-003
27/08/2025 02:22:37.3640	6,600792976021765E-001	-2,0926071E-003
27/08/2025 02:22:42.3640	6,653376344442359E-001	-2,1499067E-003
27/08/2025 02:22:47.3640	6,587011198639869E-001	-2,0735073E-003
27/08/2025 02:22:52.3640	6,513184819459914E-001	-2,0353077E-003
27/08/2025 02:22:57.3640	6,515964789748185E-001	-2,0735073E-003
27/08/2025 02:23:02.3640	6,550235743403434E-001	-2,1499067E-003
27/08/2025 02:23:07.3640	6,503991910457607E-001	-2,1308069E-003
27/08/2025 02:23:12.3640	6,454818453192690E-001	-2,0926071E-003
27/08/2025 02:23:17.3640	6,425569042563438E-001	-2,1499067E-003
27/08/2025 02:23:22.3640	6,460906834125519E-001	-2,1308069E-003
27/08/2025 02:23:27.3640	6,448219452619550E-001	-2,0735073E-003
27/08/2025 02:23:32.3640	6,407761759877193E-001	-2,0926071E-003
27/08/2025 02:23:37.3640	6,391183580040920E-001	-2,1308069E-003
27/08/2025 02:23:42.3640	6,382066669225690E-001	-2,0926071E-003
27/08/2025 02:23:47.3640	6,406747329592690E-001	-2,1308069E-003
27/08/2025 02:23:52.3640	6,380245122551915E-001	-2,1499067E-003
27/08/2025 02:23:57.3640	6,324575749158843E-001	-2,1117069E-003
27/08/2025 02:24:02.3640	6,367940514922132E-001	-2,0926071E-003
27/08/2025 02:24:07.3640	6,327559280514716E-001	-2,1499067E-003
27/08/2025 02:24:12.3640	6,250458454370493E-001	-2,2072061E-003
27/08/2025 02:24:17.3640	6,304025822877879E-001	-2,0353077E-003
27/08/2025 02:24:22.3640	6,309787600636483E-001	-2,0353077E-003
27/08/2025 02:24:27.3640	6,314703108429907E-001	-2,1881063E-003
27/08/2025 02:24:32.3640	6,306190414547919E-001	-2,1308069E-003
27/08/2025 02:24:37.3640	6,305749030590047E-001	-2,0926071E-003
27/08/2025 02:24:42.3640	6,336895129442217E-001	-2,1881063E-003
27/08/2025 02:24:47.3640	6,329182382702827E-001	-2,1690065E-003
27/08/2025 02:24:52.3640	6,318917444705949E-001	-2,1881063E-003
27/08/2025 02:24:57.3640	6,284200483083726E-001	-2,1881063E-003
27/08/2025 02:25:02.3640	6,254052643656722E-001	-2,1308069E-003
27/08/2025 02:25:07.3640	6,302532646536818E-001	-2,2263059E-003
27/08/2025 02:25:12.3640	6,252593989968300E-001	-2,1308069E-003
27/08/2025 02:25:17.3640	6,201254509806624E-001	-2,0926071E-003
27/08/2025 02:25:22.3640	6,163495302677147E-001	-2,0735073E-003
27/08/2025 02:25:27.3640	6,142689052581782E-001	-2,0735073E-003
27/08/2025 02:25:32.3640	6,168756072521191E-001	-2,1881063E-003
27/08/2025 02:25:37.3640	6,105477015852916E-001	-2,1499067E-003
27/08/2025 02:25:42.3640	6,112094364762299E-001	-2,1117069E-003
27/08/2025 02:25:47.3640	6,067931421875947E-001	-2,0926071E-003
27/08/2025 02:25:52.3640	6,103018718361835E-001	-2,1690065E-003
27/08/2025 02:25:57.3640	6,074183520674703E-001	-2,2263059E-003
27/08/2025 02:26:02.3640	5,996232597470283E-001	-2,1308069E-003
27/08/2025 02:26:07.3640	6,052642903208731E-001	-2,1690065E-003
27/08/2025 02:26:12.3640	6,073708596467968E-001	-2,1881063E-003
27/08/2025 02:26:17.3640	5,999626600623120E-001	-2,1499067E-003
27/08/2025 02:26:22.3640	5,966732596039765E-001	-2,2072061E-003
27/08/2025 02:26:27.3640	6,017967695951452E-001	-2,1117069E-003
27/08/2025 02:26:32.3640	5,976788158655157E-001	-2,0926071E-003
27/08/2025 02:26:37.3640	5,930596620202062E-001	-2,1499067E-003
27/08/2025 02:26:42.3640	5,920828693866724E-001	-2,0926071E-003
27/08/2025 02:26:47.3640	5,956750078916535E-001	-2,1308069E-003
27/08/2025 02:26:52.3640	5,894317826151827E-001	-2,0544075E-003
27/08/2025 02:26:57.3640	5,880694995641708E-001	-2,1308069E-003
27/08/2025 02:27:02.3640	5,925057162642471E-001	-2,2263059E-003
27/08/2025 02:27:07.3640	5,879818936586370E-001	-2,2072061E-003
27/08/2025 02:27:12.3640	5,836845651626587E-001	-2,1690065E-003
27/08/2025 02:27:17.3640	5,801352750182147E-001	-2,0162079E-003
27/08/2025 02:27:22.3640	5,818129241585730E-001	-1,9971081E-003
27/08/2025 02:27:27.3640	5,834060466408708E-001	-2,1308069E-003
27/08/2025 02:27:32.3640	5,859627690911293E-001	-2,1690065E-003
27/08/2025 02:27:37.3640	5,760807228445994E-001	-2,0926071E-003
27/08/2025 02:27:42.3640	5,810667367339128E-001	-2,0735073E-003
27/08/2025 02:27:47.3640	5,760286461710930E-001	-2,1690065E-003
27/08/2025 02:27:51.3162	5,715045257792495E-001	-2,1117069E-003