File: data/phase_2a/Sergey/2/3.3/02 polarisation/SN50_C6aD1E1_lr 0,1MFeCN6_in_1M_KCl_3306mL_symmetric_balanced_4_point_PEIS_10mHz_200kHz_10mV_02_CP_C16.txt
time/s	I/mA	<Ewe/V>
30/08/2025 16:05:36.8610	7,3412773E-003	-6,7416439E-003
30/08/2025 16:05:39.1610	8,6140092E-003	-6,7401282E-003
30/08/2025 16:05:41.4610	4,1594426E-003	-6,7400136E-003
30/08/2025 16:05:43.7610	4,1594426E-003	-6,7331376E-003
30/08/2025 16:05:46.0610	5,4321769E-003	-6,7408918E-003
30/08/2025 16:05:48.3610	1,2432210E-002	-6,7453994E-003
30/08/2025 16:05:50.6610	4,1594426E-003	-6,7403954E-003
30/08/2025 16:05:52.9610	9,7761012E-004	-6,7412360E-003
30/08/2025 16:05:55.2610	1,0523110E-002	-6,7450558E-003
30/08/2025 16:05:57.5610	8,6140092E-003	-6,7465841E-003
30/08/2025 16:05:59.8610	1,1795843E-002	-6,7450940E-003
30/08/2025 16:06:02.1610	5,4321769E-003	-6,7487233E-003
30/08/2025 16:06:04.4610	2,2503431E-003	-6,7455908E-003
30/08/2025 16:06:06.7610	2,2503431E-003	-6,7477678E-003
30/08/2025 16:06:09.0610	8,6140092E-003	-6,7499452E-003
30/08/2025 16:06:11.3610	6,7049102E-003	-6,7491434E-003
30/08/2025 16:06:13.6610	1,4341311E-002	-6,7458963E-003
30/08/2025 16:06:15.9610	7,3412773E-003	-6,7458581E-003
30/08/2025 16:06:18.2610	8,6140092E-003	-6,7500221E-003
30/08/2025 16:06:20.5610	9,2503773E-003	-6,7429929E-003
30/08/2025 16:06:22.8610	6,0685435E-003	-6,7458581E-003
30/08/2025 16:06:25.1610	2,2503431E-003	-6,7523518E-003
30/08/2025 16:06:27.4610	5,4321769E-003	-6,7450558E-003
30/08/2025 16:06:29.7610	7,3412773E-003	-6,7437575E-003
30/08/2025 16:06:32.0610	1,1795843E-002	-6,7478060E-003
30/08/2025 16:06:34.3610	7,9776440E-003	-6,7465459E-003
30/08/2025 16:06:36.6610	4,1594426E-003	-6,7431079E-003
30/08/2025 16:06:38.9610	1,2432210E-002	-6,7491434E-003
30/08/2025 16:06:41.2610	2,8867100E-003	-6,7575090E-003
30/08/2025 16:06:43.5610	3,5230771E-003	-6,7530395E-003
30/08/2025 16:06:45.8610	6,7049102E-003	-6,7537650E-003
30/08/2025 16:06:48.1610	-1,5678566E-003	-6,7528868E-003
30/08/2025 16:06:50.4610	6,7049102E-003	-6,7523136E-003
30/08/2025 16:06:52.7610	1,0523110E-002	-6,7498307E-003
30/08/2025 16:06:55.0610	4,1594426E-003	-6,7576999E-003
30/08/2025 16:06:57.3610	4,1594426E-003	-6,7521990E-003
30/08/2025 16:06:59.6610	6,0685435E-003	-6,7529632E-003
30/08/2025 16:07:01.9610	7,9776440E-003	-6,7529250E-003
30/08/2025 16:07:04.2610	7,3412773E-003	-6,7574326E-003
30/08/2025 16:07:06.5610	6,0685435E-003	-6,7511681E-003
30/08/2025 16:07:08.8610	6,7049102E-003	-6,7598009E-003
30/08/2025 16:07:11.1610	9,2503773E-003	-6,7534214E-003
30/08/2025 16:07:13.4610	9,2503773E-003	-6,7533832E-003
30/08/2025 16:07:15.7610	1,1159477E-002	-6,7555229E-003
30/08/2025 16:07:18.0610	7,9776440E-003	-6,7611379E-003
30/08/2025 16:07:20.3610	7,3412773E-003	-6,7565925E-003
30/08/2025 16:07:22.6610	7,9776440E-003	-6,7523899E-003
30/08/2025 16:07:24.9610	3,5230771E-003	-6,7592659E-003
30/08/2025 16:07:27.2610	9,8867435E-003	-6,7596096E-003
30/08/2025 16:07:29.5610	5,4321769E-003	-6,7481501E-003
30/08/2025 16:07:31.8610	-9,3149021E-004	-6,7603355E-003
30/08/2025 16:07:34.1610	6,0685435E-003	-6,7591895E-003
30/08/2025 16:07:36.4610	2,8867100E-003	-6,7595337E-003
30/08/2025 16:07:38.7610	7,3412773E-003	-6,7548351E-003
30/08/2025 16:07:41.0610	6,0685435E-003	-6,7601064E-003
30/08/2025 16:07:43.3610	9,2503773E-003	-6,7628953E-003
30/08/2025 16:07:45.6610	6,7049102E-003	-6,7587313E-003
30/08/2025 16:07:47.9610	1,1795843E-002	-6,7600305E-003
30/08/2025 16:07:50.2610	3,5230771E-003	-6,7604124E-003
30/08/2025 16:07:52.5610	7,3412773E-003	-6,7547201E-003
30/08/2025 16:07:54.8610	8,6140092E-003	-6,7528104E-003
30/08/2025 16:07:57.1610	4,7958097E-003	-6,7548733E-003
30/08/2025 16:07:59.4610	6,0685435E-003	-6,7550261E-003
30/08/2025 16:08:01.7610	2,8867100E-003	-6,7602210E-003
30/08/2025 16:08:04.0610	2,2503431E-003	-6,7525432E-003
30/08/2025 16:08:06.3610	8,6140092E-003	-6,7509003E-003
30/08/2025 16:08:08.6610	8,6140092E-003	-6,7531164E-003
30/08/2025 16:08:10.9610	4,1594426E-003	-6,7619020E-003
30/08/2025 16:08:13.2610	-1,5678566E-003	-6,7521613E-003
30/08/2025 16:08:15.5610	5,4321769E-003	-6,7530014E-003
30/08/2025 16:08:17.8610	2,8867100E-003	-6,7568594E-003
30/08/2025 16:08:20.1610	4,1594426E-003	-6,7581963E-003
30/08/2025 16:08:22.4610	7,9776440E-003	-6,7616343E-003
30/08/2025 16:08:24.7610	7,9776440E-003	-6,7554461E-003
30/08/2025 16:08:27.0610	7,9776440E-003	-6,7576999E-003
30/08/2025 16:08:29.3610	1,1159477E-002	-6,7600305E-003
30/08/2025 16:08:31.6610	8,6140092E-003	-6,7575090E-003
30/08/2025 16:08:33.9610	4,7958097E-003	-6,7546442E-003
30/08/2025 16:08:36.2610	4,7958097E-003	-6,7643085E-003
30/08/2025 16:08:38.5610	4,7958097E-003	-6,7555611E-003
30/08/2025 16:08:40.8610	6,0685435E-003	-6,7565157E-003
30/08/2025 16:08:43.1610	4,7958097E-003	-6,7600687E-003
30/08/2025 16:08:45.4610	1,2432210E-002	-6,7564393E-003
30/08/2025 16:08:47.7610	5,4321769E-003	-6,7554079E-003
30/08/2025 16:08:50.0610	9,7761012E-004	-6,7585786E-003
30/08/2025 16:08:52.3610	6,0685435E-003	-6,7569362E-003
30/08/2025 16:08:54.6610	7,9776440E-003	-6,7594955E-003
30/08/2025 16:08:56.9610	3,5230771E-003	-6,7589991E-003
30/08/2025 16:08:59.2610	6,7049102E-003	-6,7606410E-003
30/08/2025 16:09:01.5610	7,9776440E-003	-6,7498307E-003
30/08/2025 16:09:03.8610	5,4321769E-003	-6,7624371E-003
30/08/2025 16:09:06.1610	2,8867100E-003	-6,7619020E-003
30/08/2025 16:09:08.4610	1,1159477E-002	-6,7564775E-003
30/08/2025 16:09:10.7610	9,8867435E-003	-6,7557134E-003
30/08/2025 16:09:13.0610	9,8867435E-003	-6,7658746E-003
30/08/2025 16:09:15.3610	7,3412773E-003	-6,7538419E-003
30/08/2025 16:09:17.6610	5,4321769E-003	-6,7520849E-003
30/08/2025 16:09:19.9610	8,6140092E-003	-6,7507098E-003
30/08/2025 16:09:22.2610	4,7958097E-003	-6,7630098E-003
30/08/2025 16:09:24.5610	6,0685435E-003	-6,7617106E-003
30/08/2025 16:09:26.8610	7,3412773E-003	-6,7609088E-003
30/08/2025 16:09:29.1610	5,4321769E-003	-6,7602973E-003
30/08/2025 16:09:31.4610	8,6140092E-003	-6,7565925E-003
30/08/2025 16:09:33.7610	4,7958097E-003	-6,7608324E-003
30/08/2025 16:09:36.0610	1,4977678E-002	-6,7543383E-003
30/08/2025 16:09:38.3610	2,8867100E-003	-6,7606028E-003
30/08/2025 16:09:40.6610	4,7958097E-003	-6,7554079E-003
30/08/2025 16:09:42.9610	8,6140092E-003	-6,7625134E-003
30/08/2025 16:09:45.2610	6,7049102E-003	-6,7632771E-003
30/08/2025 16:09:47.5610	6,7049102E-003	-6,7542619E-003
30/08/2025 16:09:49.8610	5,4321769E-003	-6,7595718E-003
30/08/2025 16:09:52.1610	5,4321769E-003	-6,7637735E-003
30/08/2025 16:09:54.4610	4,7958097E-003	-6,7608324E-003
30/08/2025 16:09:56.7610	9,7761012E-004	-6,7621311E-003
30/08/2025 16:09:59.0610	2,8867100E-003	-6,7593809E-003
30/08/2025 16:10:01.3610	7,9776440E-003	-6,7622075E-003
30/08/2025 16:10:03.6610	6,7049102E-003	-6,7628953E-003
30/08/2025 16:10:05.9610	1,6139771E-003	-6,7609088E-003
30/08/2025 16:10:08.2610	2,8867100E-003	-6,7575471E-003
30/08/2025 16:10:10.5610	1,1159477E-002	-6,7552170E-003
30/08/2025 16:10:12.8610	8,6140092E-003	-6,7601064E-003
30/08/2025 16:10:15.1610	6,7049102E-003	-6,7646522E-003
30/08/2025 16:10:17.4610	7,3412773E-003	-6,7605651E-003
30/08/2025 16:10:19.7610	4,7958097E-003	-6,7580822E-003
30/08/2025 16:10:22.0610	1,2432210E-002	-6,7571648E-003
30/08/2025 16:10:24.3610	6,0685435E-003	-6,7575090E-003
30/08/2025 16:10:26.6610	7,3412773E-003	-6,7619020E-003
30/08/2025 16:10:28.9610	7,3412773E-003	-6,7593809E-003
30/08/2025 16:10:31.2610	5,4321769E-003	-6,7574326E-003
30/08/2025 16:10:33.5610	1,2432210E-002	-6,7562102E-003
30/08/2025 16:10:35.8610	6,7049102E-003	-6,7661800E-003
30/08/2025 16:10:38.1610	7,9776440E-003	-6,7674029E-003
30/08/2025 16:10:40.4610	3,4124311E-004	-6,7554461E-003
30/08/2025 16:10:42.7610	6,0685435E-003	-6,7646522E-003
30/08/2025 16:10:45.0610	7,9776440E-003	-6,7660655E-003
30/08/2025 16:10:47.3610	5,4321769E-003	-6,7600305E-003
30/08/2025 16:10:49.6610	7,9776440E-003	-6,7620929E-003
30/08/2025 16:10:51.9610	7,3412773E-003	-6,7646522E-003
30/08/2025 16:10:54.2610	1,6250411E-002	-6,7647286E-003
30/08/2025 16:10:56.5610	3,5230771E-003	-6,7606028E-003
30/08/2025 16:10:58.8610	2,8867100E-003	-6,7607942E-003
30/08/2025 16:11:01.1610	-2,2042233E-003	-6,7570889E-003
30/08/2025 16:11:03.4610	7,9776440E-003	-6,7594573E-003
30/08/2025 16:11:05.7610	2,2503431E-003	-6,7616343E-003
30/08/2025 16:11:08.0610	9,8867435E-003	-6,7627421E-003
30/08/2025 16:11:10.3610	9,2503773E-003	-6,7617106E-003
30/08/2025 16:11:12.6610	3,4124311E-004	-6,7661037E-003
30/08/2025 16:11:14.9610	6,0685435E-003	-6,7624371E-003
30/08/2025 16:11:17.2610	4,1594426E-003	-6,7589991E-003
30/08/2025 16:11:19.5610	3,4124311E-004	-6,7600305E-003
30/08/2025 16:11:21.8610	9,2503773E-003	-6,7632771E-003
30/08/2025 16:11:24.1610	1,3068578E-002	-6,7607560E-003
30/08/2025 16:11:26.4610	1,6139771E-003	-6,7661800E-003
30/08/2025 16:11:28.7610	1,1795843E-002	-6,7622075E-003
30/08/2025 16:11:31.0610	8,6140092E-003	-6,7620929E-003
30/08/2025 16:11:33.3610	1,6250411E-002	-6,7546060E-003
30/08/2025 16:11:35.6610	1,2432210E-002	-6,7636590E-003
30/08/2025 16:11:37.9610	6,7049102E-003	-6,7622075E-003
30/08/2025 16:11:40.2610	8,6140092E-003	-6,7633535E-003
30/08/2025 16:11:42.5610	4,1594426E-003	-6,7601828E-003
30/08/2025 16:11:44.8610	9,8867435E-003	-6,7636208E-003
30/08/2025 16:11:47.1610	-2,9512335E-004	-6,7616343E-003
30/08/2025 16:11:49.4610	7,3412773E-003	-6,7552552E-003
30/08/2025 16:11:51.7610	4,1594426E-003	-6,7644613E-003
30/08/2025 16:11:54.0610	4,1594426E-003	-6,7677465E-003
30/08/2025 16:11:56.3610	4,7958097E-003	-6,7648049E-003
30/08/2025 16:11:58.6610	1,1159477E-002	-6,7633917E-003
30/08/2025 16:12:00.9610	9,7761012E-004	-6,7643467E-003
30/08/2025 16:12:03.2610	3,5230771E-003	-6,7637353E-003
30/08/2025 16:12:05.5610	8,6140092E-003	-6,7537269E-003
30/08/2025 16:12:07.8610	1,6139771E-003	-6,7670587E-003
30/08/2025 16:12:10.1610	9,8867435E-003	-6,7672497E-003
30/08/2025 16:12:12.4610	7,9776440E-003	-6,7621311E-003
30/08/2025 16:12:14.7610	6,0685435E-003	-6,7640408E-003
30/08/2025 16:12:17.0610	-2,8405902E-003	-6,7609088E-003
30/08/2025 16:12:19.3610	4,1594426E-003	-6,7630857E-003
30/08/2025 16:12:21.6610	5,4321769E-003	-6,7606792E-003
30/08/2025 16:12:23.9610	-9,3149021E-004	-6,7651873E-003
30/08/2025 16:12:26.2610	1,3068578E-002	-6,7611760E-003
30/08/2025 16:12:28.5610	2,2503431E-003	-6,7580058E-003
30/08/2025 16:12:30.8610	3,5230771E-003	-6,7635449E-003
30/08/2025 16:12:33.1610	5,4321769E-003	-6,7655691E-003
30/08/2025 16:12:35.4610	6,0685435E-003	-6,7591514E-003
30/08/2025 16:12:37.7610	4,1594426E-003	-6,7625134E-003
30/08/2025 16:12:40.0610	6,0685435E-003	-6,7688162E-003
30/08/2025 16:12:42.3610	1,0523110E-002	-6,7657982E-003
30/08/2025 16:12:44.6610	6,0685435E-003	-6,7681284E-003
30/08/2025 16:12:46.9610	4,7958097E-003	-6,7616343E-003
30/08/2025 16:12:49.2610	6,7049102E-003	-6,7667915E-003
30/08/2025 16:12:51.5610	9,8867435E-003	-6,7661800E-003
30/08/2025 16:12:53.8610	4,1594426E-003	-6,7615584E-003
30/08/2025 16:12:56.1610	1,4341311E-002	-6,7651486E-003
30/08/2025 16:12:58.4610	5,4321769E-003	-6,7657218E-003
30/08/2025 16:13:00.7610	7,3412773E-003	-6,7697330E-003
30/08/2025 16:13:03.0610	1,3704944E-002	-6,7633917E-003
30/08/2025 16:13:05.3610	2,8867100E-003	-6,7646904E-003
30/08/2025 16:13:07.6610	6,7049102E-003	-6,7653018E-003
30/08/2025 16:13:09.9610	3,5230771E-003	-6,7638122E-003
30/08/2025 16:13:12.2610	9,2503773E-003	-6,7574708E-003
30/08/2025 16:13:14.5610	1,0523110E-002	-6,7624752E-003
30/08/2025 16:13:16.8610	9,8867435E-003	-6,7693125E-003
30/08/2025 16:13:19.1610	6,0685435E-003	-6,7659514E-003
30/08/2025 16:13:21.4610	7,3412773E-003	-6,7599155E-003
30/08/2025 16:13:23.7610	4,1594426E-003	-6,7709549E-003
30/08/2025 16:13:26.0610	8,6140092E-003	-6,7606028E-003
30/08/2025 16:13:28.3610	7,3412773E-003	-6,7625516E-003
30/08/2025 16:13:30.6610	5,4321769E-003	-6,7607942E-003
30/08/2025 16:13:32.9610	5,4321769E-003	-6,7625516E-003
30/08/2025 16:13:35.2610	3,5230771E-003	-6,7697330E-003
30/08/2025 16:13:37.5610	2,8867100E-003	-6,7642704E-003
30/08/2025 16:13:39.8610	1,1795843E-002	-6,7629335E-003
30/08/2025 16:13:42.1610	4,1594426E-003	-6,7619020E-003
30/08/2025 16:13:44.4610	5,4321769E-003	-6,7660655E-003
30/08/2025 16:13:46.7610	1,6139771E-003	-6,7626275E-003
30/08/2025 16:13:49.0610	1,2432210E-002	-6,7627807E-003
30/08/2025 16:13:51.3610	1,0523110E-002	-6,7648818E-003
30/08/2025 16:13:53.6610	1,1795843E-002	-6,7668296E-003
30/08/2025 16:13:55.9610	5,4321769E-003	-6,7656836E-003
30/08/2025 16:13:58.2610	-9,3149021E-004	-6,7623220E-003
30/08/2025 16:14:00.5610	1,1159477E-002	-6,7598773E-003
30/08/2025 16:14:02.8610	9,8867435E-003	-6,7654164E-003
30/08/2025 16:14:05.1610	6,0685435E-003	-6,7608324E-003
30/08/2025 16:14:07.4610	1,5614044E-002	-6,7579295E-003
30/08/2025 16:14:09.7610	-3,4769569E-003	-6,7656836E-003
30/08/2025 16:14:12.0610	3,5230771E-003	-6,7624752E-003
30/08/2025 16:14:14.3610	7,9776440E-003	-6,7606028E-003
30/08/2025 16:14:16.6610	6,0685435E-003	-6,7673265E-003
30/08/2025 16:14:18.9610	4,1594426E-003	-6,7659896E-003
30/08/2025 16:14:21.2610	6,0685435E-003	-6,7633917E-003
30/08/2025 16:14:23.5610	9,2503773E-003	-6,7657218E-003
30/08/2025 16:14:25.8610	3,5230771E-003	-6,7663714E-003
30/08/2025 16:14:28.1610	7,3412773E-003	-6,7610233E-003
30/08/2025 16:14:30.4610	4,1594426E-003	-6,7682429E-003
30/08/2025 16:14:32.7610	1,1159477E-002	-6,7634298E-003
30/08/2025 16:14:35.0610	4,7958097E-003	-6,7612524E-003
30/08/2025 16:14:37.3610	1,1159477E-002	-6,7598773E-003
30/08/2025 16:14:39.6610	6,0685435E-003	-6,7659896E-003
30/08/2025 16:14:41.9610	1,3068578E-002	-6,7655304E-003
30/08/2025 16:14:44.2610	7,9776440E-003	-6,7633535E-003
30/08/2025 16:14:46.5610	9,2503773E-003	-6,7702676E-003
30/08/2025 16:14:48.8610	4,1594426E-003	-6,7677847E-003
30/08/2025 16:14:51.1610	9,7761012E-004	-6,7598391E-003
30/08/2025 16:14:53.4610	9,7761012E-004	-6,7635826E-003
30/08/2025 16:14:55.7610	9,8867435E-003	-6,7635067E-003
30/08/2025 16:14:58.0610	5,4321769E-003	-6,7591514E-003
30/08/2025 16:15:00.3610	7,3412773E-003	-6,7670206E-003
30/08/2025 16:15:02.6610	1,3068578E-002	-6,7690834E-003
30/08/2025 16:15:04.9610	7,9776440E-003	-6,7627039E-003
30/08/2025 16:15:07.2610	7,9776440E-003	-6,7651486E-003
30/08/2025 16:15:09.5610	1,6139771E-003	-6,7623602E-003
30/08/2025 16:15:11.8610	6,0685435E-003	-6,7704590E-003
30/08/2025 16:15:14.1610	2,8867100E-003	-6,7610233E-003
30/08/2025 16:15:16.4610	9,8867435E-003	-6,7638503E-003
30/08/2025 16:15:18.7610	2,2503431E-003	-6,7700767E-003
30/08/2025 16:15:21.0610	7,9776440E-003	-6,7672115E-003
30/08/2025 16:15:23.3610	7,3412773E-003	-6,7665237E-003
30/08/2025 16:15:25.6610	8,6140092E-003	-6,7710313E-003
30/08/2025 16:15:27.9610	3,5230771E-003	-6,7711845E-003
30/08/2025 16:15:30.2610	3,4124311E-004	-6,7696562E-003
30/08/2025 16:15:32.5610	1,2432210E-002	-6,7682811E-003
30/08/2025 16:15:34.8610	1,2432210E-002	-6,7741256E-003
30/08/2025 16:15:37.1136	2,6512651E+001	4,1280887E-003
30/08/2025 16:15:39.4136	2,6508831E+001	6,6637807E-003
30/08/2025 16:15:41.7136	2,6508831E+001	8,1241913E-003
30/08/2025 16:15:44.0136	2,6512012E+001	9,2533343E-003
30/08/2025 16:15:46.3136	2,6506285E+001	1,0166573E-002
30/08/2025 16:15:48.6136	2,6505650E+001	1,0931024E-002
30/08/2025 16:15:50.9136	2,6506285E+001	1,1626525E-002
30/08/2025 16:15:53.2136	2,6504377E+001	1,2275498E-002
30/08/2025 16:15:55.5136	2,6505014E+001	1,2855370E-002
30/08/2025 16:15:57.8136	2,6508196E+001	1,3405100E-002
30/08/2025 16:16:00.1136	2,6508831E+001	1,3925647E-002
30/08/2025 16:16:02.4136	2,6503107E+001	1,4379688E-002
30/08/2025 16:16:04.7136	2,6505650E+001	1,4785559E-002
30/08/2025 16:16:07.0136	2,6506285E+001	1,5187572E-002
30/08/2025 16:16:09.3136	2,6506285E+001	1,5595659E-002
30/08/2025 16:16:11.6136	2,6511377E+001	1,5970932E-002
30/08/2025 16:16:13.9136	2,6507559E+001	1,6331077E-002
30/08/2025 16:16:16.2136	2,6509470E+001	1,6695846E-002
30/08/2025 16:16:18.5136	2,6504377E+001	1,6998960E-002
30/08/2025 16:16:20.8136	2,6507559E+001	1,7279843E-002
30/08/2025 16:16:23.1136	2,6501196E+001	1,7563779E-002
30/08/2025 16:16:25.4136	2,6508196E+001	1,7857613E-002
30/08/2025 16:16:27.7136	2,6507559E+001	1,8143421E-002
30/08/2025 16:16:30.0136	2,6502468E+001	1,8418267E-002
30/08/2025 16:16:32.3136	2,6510105E+001	1,8687192E-002
30/08/2025 16:16:34.6136	2,6501196E+001	1,8902067E-002
30/08/2025 16:16:36.9136	2,6506285E+001	1,9097306E-002
30/08/2025 16:16:39.2136	2,6508831E+001	1,9306906E-002
30/08/2025 16:16:41.5136	2,6510105E+001	1,9537289E-002
30/08/2025 16:16:43.8136	2,6509470E+001	1,9758310E-002
30/08/2025 16:16:46.1136	2,6502468E+001	1,9974826E-002
30/08/2025 16:16:48.4136	2,6508196E+001	2,0198334E-002
30/08/2025 16:16:50.7136	2,6504377E+001	2,0365264E-002
30/08/2025 16:16:53.0136	2,6510105E+001	2,0499690E-002
30/08/2025 16:16:55.3136	2,6512012E+001	2,0673499E-002
30/08/2025 16:16:57.6136	2,6506285E+001	2,0858919E-002
30/08/2025 16:16:59.9136	2,6510742E+001	2,1034179E-002
30/08/2025 16:17:02.2136	2,6504377E+001	2,1209439E-002
30/08/2025 16:17:04.5136	2,6506285E+001	2,1384699E-002
30/08/2025 16:17:06.8136	2,6510742E+001	2,1514960E-002
30/08/2025 16:17:09.1136	2,6508196E+001	2,1615654E-002
30/08/2025 16:17:11.4136	2,6505650E+001	2,1750269E-002
30/08/2025 16:17:13.7136	2,6519650E+001	2,1910936E-002
30/08/2025 16:17:16.0136	2,6506924E+001	2,2055028E-002
30/08/2025 16:17:18.3136	2,6505014E+001	2,2205992E-002
30/08/2025 16:17:20.6136	2,6512012E+001	2,2353021E-002
30/08/2025 16:17:22.9136	2,6509470E+001	2,2459598E-002
30/08/2025 16:17:25.2136	2,6505014E+001	2,2543371E-002
30/08/2025 16:17:27.5136	2,6506924E+001	2,2669505E-002
30/08/2025 16:17:29.8136	2,6507559E+001	2,2804847E-002
30/08/2025 16:17:32.1136	2,6508831E+001	2,2933312E-002
30/08/2025 16:17:34.4136	2,6508831E+001	2,3053411E-002
30/08/2025 16:17:36.7136	2,6506924E+001	2,3188982E-002
30/08/2025 16:17:38.9138	1,6139771E-003	1,0166381E-002
30/08/2025 16:17:41.2138	3,5230771E-003	8,7086074E-003
30/08/2025 16:17:43.5138	2,2503431E-003	7,6657571E-003
30/08/2025 16:17:45.8138	6,7049102E-003	6,8186042E-003
30/08/2025 16:17:48.1138	5,4321769E-003	6,1064102E-003
30/08/2025 16:17:50.4138	9,8867435E-003	5,4849018E-003
30/08/2025 16:17:52.7138	6,7049102E-003	4,9213045E-003
30/08/2025 16:17:55.0138	2,8867100E-003	4,4240216E-003
30/08/2025 16:17:57.3138	1,1795843E-002	3,9672302E-003
30/08/2025 16:17:59.6138	8,6140092E-003	3,5578066E-003
30/08/2025 16:18:01.9138	4,1594426E-003	3,1900969E-003
30/08/2025 16:18:04.2138	4,1594426E-003	2,8410668E-003
30/08/2025 16:18:06.5138	6,7049102E-003	2,5034966E-003
30/08/2025 16:18:08.8138	4,7958097E-003	2,1839950E-003
30/08/2025 16:18:11.1138	9,2503773E-003	1,8867253E-003
30/08/2025 16:18:13.4138	9,7761012E-004	1,6122991E-003
30/08/2025 16:18:15.7138	5,4321769E-003	1,3551773E-003
30/08/2025 16:18:18.0138	5,4321769E-003	1,1147870E-003
30/08/2025 16:18:20.3138	7,9776440E-003	8,8726997E-004
30/08/2025 16:18:22.6138	1,1795843E-002	6,6811865E-004
30/08/2025 16:18:24.9138	7,3412773E-003	4,4556757E-004
30/08/2025 16:18:27.2138	4,1594426E-003	2,5132237E-004
30/08/2025 16:18:29.5138	5,4321769E-003	6,1164588E-005
30/08/2025 16:18:31.8138	1,4977678E-002	-1,1451555E-004
30/08/2025 16:18:34.1138	1,1159477E-002	-2,8530613E-004
30/08/2025 16:18:36.4138	7,3412773E-003	-4,4085507E-004
30/08/2025 16:18:38.7138	8,6140092E-003	-5,9586921E-004
30/08/2025 16:18:41.0138	4,7958097E-003	-7,5466506E-004
30/08/2025 16:18:43.3138	3,5230771E-003	-8,9959451E-004
30/08/2025 16:18:45.6138	6,7049102E-003	-1,0493371E-003
30/08/2025 16:18:47.9138	6,7049102E-003	-1,1657695E-003
30/08/2025 16:18:50.2138	-9,3149021E-004	-1,2906442E-003
30/08/2025 16:18:52.5138	4,7958097E-003	-1,4139526E-003
30/08/2025 16:18:54.8138	1,1159477E-002	-1,5231272E-003
30/08/2025 16:18:57.1138	4,1594426E-003	-1,6331804E-003
30/08/2025 16:18:59.4138	6,7049102E-003	-1,7543877E-003
30/08/2025 16:19:01.7138	4,1594426E-003	-1,8571066E-003
30/08/2025 16:19:04.0138	7,9776440E-003	-1,9544775E-003
30/08/2025 16:19:06.3138	2,2503431E-003	-2,0474552E-003
30/08/2025 16:19:08.6138	7,3412773E-003	-2,1385616E-003
30/08/2025 16:19:10.9138	8,6140092E-003	-2,2253892E-003
30/08/2025 16:19:13.2138	4,7958097E-003	-2,3042718E-003
30/08/2025 16:19:15.5138	4,1594426E-003	-2,4002674E-003
30/08/2025 16:19:17.8138	9,7761012E-004	-2,4723499E-003
30/08/2025 16:19:20.1138	9,8867435E-003	-2,5612023E-003
30/08/2025 16:19:22.4138	6,0685435E-003	-2,6340489E-003
30/08/2025 16:19:24.7138	6,0685435E-003	-2,7027321E-003
30/08/2025 16:19:27.0138	4,7958097E-003	-2,7781383E-003
30/08/2025 16:19:29.3138	8,6140092E-003	-2,8509083E-003
30/08/2025 16:19:31.6138	7,3412773E-003	-2,9252449E-003
30/08/2025 16:19:33.9138	6,7049102E-003	-2,9914449E-003
30/08/2025 16:19:36.2138	3,5230771E-003	-3,0577977E-003
30/08/2025 16:19:38.4140	-2,6490965E+001	-1,5680104E-002
30/08/2025 16:19:40.7140	-2,6483963E+001	-1,7477015E-002
30/08/2025 16:19:43.0140	-2,6484600E+001	-1,8794175E-002
30/08/2025 16:19:45.3140	-2,6491598E+001	-1,9830570E-002
30/08/2025 16:19:47.6140	-2,6487148E+001	-2,0700950E-002
30/08/2025 16:19:49.9140	-2,6490965E+001	-2,1515060E-002
30/08/2025 16:19:52.2140	-2,6484600E+001	-2,2244904E-002
30/08/2025 16:19:54.5140	-2,6487148E+001	-2,2915764E-002
30/08/2025 16:19:56.8140	-2,6486509E+001	-2,3534676E-002
30/08/2025 16:19:59.1140	-2,6488420E+001	-2,4135174E-002
30/08/2025 16:20:01.4140	-2,6488420E+001	-2,4641892E-002
30/08/2025 16:20:03.7140	-2,6490330E+001	-2,5130121E-002
30/08/2025 16:20:06.0140	-2,6485874E+001	-2,5614340E-002
30/08/2025 16:20:08.3140	-2,6480783E+001	-2,6066242E-002
30/08/2025 16:20:10.6140	-2,6485235E+001	-2,6510390E-002
30/08/2025 16:20:12.9140	-2,6483963E+001	-2,6936352E-002
30/08/2025 16:20:15.2140	-2,6480783E+001	-2,7348526E-002
30/08/2025 16:20:17.5140	-2,6491598E+001	-2,7702905E-002
30/08/2025 16:20:19.8140	-2,6487148E+001	-2,8037380E-002
30/08/2025 16:20:22.1140	-2,6489056E+001	-2,8391149E-002
30/08/2025 16:20:24.4140	-2,6485874E+001	-2,8727993E-002
30/08/2025 16:20:26.7140	-2,6492237E+001	-2,9063767E-002
30/08/2025 16:20:29.0140	-2,6480783E+001	-2,9390985E-002
30/08/2025 16:20:31.3140	-2,6484600E+001	-2,9707087E-002
30/08/2025 16:20:33.6140	-2,6491598E+001	-2,9962033E-002
30/08/2025 16:20:35.9140	-2,6484600E+001	-3,0217702E-002
30/08/2025 16:20:38.2140	-2,6487783E+001	-3,0489912E-002
30/08/2025 16:20:40.5140	-2,6484600E+001	-3,0768808E-002
30/08/2025 16:20:42.8140	-2,6487148E+001	-3,1017296E-002
30/08/2025 16:20:45.1140	-2,6487783E+001	-3,1288933E-002
30/08/2025 16:20:47.4140	-2,6486509E+001	-3,1528026E-002
30/08/2025 16:20:49.7140	-2,6482054E+001	-3,1720515E-002
30/08/2025 16:20:52.0140	-2,6489056E+001	-3,1918045E-002
30/08/2025 16:20:54.3140	-2,6482693E+001	-3,2139450E-002
30/08/2025 16:20:56.6140	-2,6481419E+001	-3,2361314E-002
30/08/2025 16:20:58.9140	-2,6482693E+001	-3,2576453E-002
30/08/2025 16:21:01.2140	-2,6482054E+001	-3,2787126E-002
30/08/2025 16:21:03.5140	-2,6485874E+001	-3,2994930E-002
30/08/2025 16:21:05.8140	-2,6480783E+001	-3,3149067E-002
30/08/2025 16:21:08.1140	-2,6489056E+001	-3,3302169E-002
30/08/2025 16:21:10.4140	-2,6483963E+001	-3,3488162E-002
30/08/2025 16:21:12.7140	-2,6485874E+001	-3,3674542E-002
30/08/2025 16:21:15.0140	-2,6479511E+001	-3,3857632E-002
30/08/2025 16:21:17.3140	-2,6487783E+001	-3,4029987E-002
30/08/2025 16:21:19.6140	-2,6489056E+001	-3,4203071E-002
30/08/2025 16:21:21.9140	-2,6481419E+001	-3,4324966E-002
30/08/2025 16:21:24.2140	-2,6480146E+001	-3,4445751E-002
30/08/2025 16:21:26.5140	-2,6486509E+001	-3,4609783E-002
30/08/2025 16:21:28.8140	-2,6485235E+001	-3,4766398E-002
30/08/2025 16:21:31.1140	-2,6486509E+001	-3,4929320E-002
30/08/2025 16:21:33.4140	-2,6488420E+001	-3,5088845E-002
30/08/2025 16:21:35.7140	-2,6484600E+001	-3,5238739E-002
30/08/2025 16:21:37.9142	5,3017323E+001	1,1751807E-003
30/08/2025 16:21:40.2142	5,3009686E+001	6,8076407E-003
30/08/2025 16:21:42.5142	5,3010323E+001	1,0615151E-002
30/08/2025 16:21:44.8142	5,3006504E+001	1,3604694E-002
30/08/2025 16:21:47.1142	5,3012867E+001	1,6116396E-002
30/08/2025 16:21:49.4142	5,3010960E+001	1,8331898E-002
30/08/2025 16:21:51.7142	5,3010960E+001	2,0243598E-002
30/08/2025 16:21:54.0142	5,3011597E+001	2,1927746E-002
30/08/2025 16:21:56.3142	5,3016052E+001	2,3483349E-002
30/08/2025 16:21:58.6142	5,3016052E+001	2,4951132E-002
30/08/2025 16:22:00.9142	5,3012867E+001	2,6336940E-002
30/08/2025 16:22:03.2142	5,3007137E+001	2,7609482E-002
30/08/2025 16:22:05.5142	5,3012230E+001	2,8842721E-002
30/08/2025 16:22:07.8142	5,3015415E+001	2,9937597E-002
30/08/2025 16:22:10.1142	5,3014145E+001	3,0939689E-002
30/08/2025 16:22:12.4142	5,3014778E+001	3,1908471E-002
30/08/2025 16:22:14.7142	5,3014778E+001	3,2890469E-002
30/08/2025 16:22:17.0142	5,3009686E+001	3,3807296E-002
30/08/2025 16:22:19.3142	5,3021141E+001	3,4684628E-002
30/08/2025 16:22:21.6142	5,3009686E+001	3,5552945E-002
30/08/2025 16:22:23.9142	5,3021141E+001	3,6298450E-002
30/08/2025 16:22:26.2142	5,3013508E+001	3,6983863E-002
30/08/2025 16:22:28.5142	5,3014778E+001	3,7695680E-002
30/08/2025 16:22:30.8142	5,3009045E+001	3,8402218E-002
30/08/2025 16:22:33.1142	5,3009045E+001	3,9087866E-002
30/08/2025 16:22:35.4142	5,3012230E+001	3,9750587E-002
30/08/2025 16:22:37.7142	5,3011597E+001	4,0400859E-002
30/08/2025 16:22:40.0142	5,3012230E+001	4,0954296E-002
30/08/2025 16:22:42.3142	5,3007137E+001	4,1458454E-002
30/08/2025 16:22:44.6142	5,3011597E+001	4,2002723E-002
30/08/2025 16:22:46.9142	5,3009686E+001	4,2536527E-002
30/08/2025 16:22:49.2142	5,3009045E+001	4,3077242E-002
30/08/2025 16:22:51.5142	5,3017323E+001	4,3581251E-002
30/08/2025 16:22:53.8142	5,3012867E+001	4,4097517E-002
30/08/2025 16:22:56.1142	5,3009686E+001	4,4515647E-002
30/08/2025 16:22:58.4142	5,3008415E+001	4,4890847E-002
30/08/2025 16:23:00.7142	5,3012230E+001	4,5314405E-002
30/08/2025 16:23:03.0142	5,3014778E+001	4,5742087E-002
30/08/2025 16:23:05.3142	5,3011597E+001	4,6178363E-002
30/08/2025 16:23:07.6142	5,3012230E+001	4,6596039E-002
30/08/2025 16:23:09.9142	5,3014778E+001	4,7025327E-002
30/08/2025 16:23:12.2142	5,3011597E+001	4,7350064E-002
30/08/2025 16:23:14.5142	5,3018593E+001	4,7638662E-002
30/08/2025 16:23:16.8142	5,3007774E+001	4,7983453E-002
30/08/2025 16:23:19.1142	5,3012230E+001	4,8375569E-002
30/08/2025 16:23:21.4142	5,3007774E+001	4,8729412E-002
30/08/2025 16:23:23.7142	5,3009686E+001	4,9097847E-002
30/08/2025 16:23:26.0142	5,3008415E+001	4,9459752E-002
30/08/2025 16:23:28.3142	5,3007774E+001	4,9708586E-002
30/08/2025 16:23:30.6142	5,3015415E+001	4,9958564E-002
30/08/2025 16:23:32.9142	5,3009045E+001	5,0242614E-002
30/08/2025 16:23:35.2142	5,3008415E+001	5,0578736E-002
30/08/2025 16:23:37.4146	1,3068578E-002	2,7880013E-002
30/08/2025 16:23:39.7146	1,0523110E-002	2,3563415E-002
30/08/2025 16:23:42.0146	7,9776440E-003	2,1005109E-002
30/08/2025 16:23:44.3146	7,3412773E-003	1,9081566E-002
30/08/2025 16:23:46.6146	6,7049102E-003	1,7528294E-002
30/08/2025 16:23:48.9146	1,3704944E-002	1,6234701E-002
30/08/2025 16:23:51.2146	4,7958097E-003	1,5105595E-002
30/08/2025 16:23:53.5146	7,3412773E-003	1,4094986E-002
30/08/2025 16:23:55.8146	7,3412773E-003	1,3204399E-002
30/08/2025 16:23:58.1146	1,1159477E-002	1,2352777E-002
30/08/2025 16:24:00.4146	6,0685435E-003	1,1577362E-002
30/08/2025 16:24:02.7146	1,3704944E-002	1,0882053E-002
30/08/2025 16:24:05.0146	6,7049102E-003	1,0244347E-002
30/08/2025 16:24:07.3146	1,1159477E-002	9,6535143E-003
30/08/2025 16:24:09.6146	1,0523110E-002	9,0983203E-003
30/08/2025 16:24:11.9146	8,6140092E-003	8,5827019E-003
30/08/2025 16:24:14.2146	2,8867100E-003	8,0819810E-003
30/08/2025 16:24:16.5146	2,8867100E-003	7,5972271E-003
30/08/2025 16:24:18.8146	6,7049102E-003	7,1669086E-003
30/08/2025 16:24:21.1146	5,4321769E-003	6,7605404E-003
30/08/2025 16:24:23.4146	2,2503431E-003	6,3774749E-003
30/08/2025 16:24:25.7146	9,2503773E-003	6,0142726E-003
30/08/2025 16:24:28.0146	6,7049102E-003	5,6652809E-003
30/08/2025 16:24:30.3146	6,7049102E-003	5,3222100E-003
30/08/2025 16:24:32.6146	9,2503773E-003	5,0028991E-003
30/08/2025 16:24:34.9146	8,6140092E-003	4,6995552E-003
30/08/2025 16:24:37.2146	1,0523110E-002	4,4203927E-003
30/08/2025 16:24:39.5146	1,0523110E-002	4,1592214E-003
30/08/2025 16:24:41.8146	1,2432210E-002	3,9043536E-003
30/08/2025 16:24:44.1146	4,1594426E-003	3,6541463E-003
30/08/2025 16:24:46.4146	8,6140092E-003	3,4156658E-003
30/08/2025 16:24:48.7146	3,4124311E-004	3,1928855E-003
30/08/2025 16:24:51.0146	9,8867435E-003	2,9767519E-003
30/08/2025 16:24:53.3146	5,4321769E-003	2,7731096E-003
30/08/2025 16:24:55.6146	8,6140092E-003	2,5782152E-003
30/08/2025 16:24:57.9146	6,7049102E-003	2,4015417E-003
30/08/2025 16:25:00.2146	2,8867100E-003	2,2154716E-003
30/08/2025 16:25:02.5146	1,0523110E-002	2,0307761E-003
30/08/2025 16:25:04.8146	7,9776440E-003	1,8579229E-003
30/08/2025 16:25:07.1146	7,3412773E-003	1,6938172E-003
30/08/2025 16:25:09.4146	3,4124311E-004	1,5438836E-003
30/08/2025 16:25:11.7146	9,8867435E-003	1,3964712E-003
30/08/2025 16:25:14.0146	7,3412773E-003	1,2562021E-003
30/08/2025 16:25:16.3146	6,7049102E-003	1,1191800E-003
30/08/2025 16:25:18.6146	6,0685435E-003	9,7849069E-004
30/08/2025 16:25:20.9146	1,3068578E-002	8,4001705E-004
30/08/2025 16:25:23.2146	9,7761012E-004	7,1770174E-004
30/08/2025 16:25:25.5146	9,2503773E-003	5,8304804E-004
30/08/2025 16:25:27.8146	6,0685435E-003	4,7188709E-004
30/08/2025 16:25:30.1146	3,5230771E-003	3,5297161E-004
30/08/2025 16:25:32.4146	8,6140092E-003	2,4230727E-004
30/08/2025 16:25:34.7146	1,0523110E-002	1,2033583E-004
30/08/2025 16:25:36.9148	-5,2975906E+001	-2,0478921E-002
30/08/2025 16:25:39.2148	-5,2975906E+001	-2,6588697E-002
30/08/2025 16:25:41.5148	-5,2984180E+001	-2,9715415E-002
30/08/2025 16:25:43.8148	-5,2987362E+001	-3,2095291E-002
30/08/2025 16:25:46.1148	-5,2986092E+001	-3,4101229E-002
30/08/2025 16:25:48.4148	-5,2977814E+001	-3,5868995E-002
30/08/2025 16:25:50.7148	-5,2982906E+001	-3,7370969E-002
30/08/2025 16:25:53.0148	-5,2979088E+001	-3,8722888E-002
30/08/2025 16:25:55.3148	-5,2974636E+001	-4,0005330E-002
30/08/2025 16:25:57.6148	-5,2975906E+001	-4,1227523E-002
30/08/2025 16:25:59.9148	-5,2977180E+001	-4,2366143E-002
30/08/2025 16:26:02.2148	-5,2976543E+001	-4,3450516E-002
30/08/2025 16:26:04.5148	-5,2979088E+001	-4,4459365E-002
30/08/2025 16:26:06.8148	-5,2982906E+001	-4,5349304E-002
30/08/2025 16:26:09.1148	-5,2982906E+001	-4,6193250E-002
30/08/2025 16:26:11.4148	-5,2976543E+001	-4,7044031E-002
30/08/2025 16:26:13.7148	-5,2976543E+001	-4,7888316E-002
30/08/2025 16:26:16.0148	-5,2980999E+001	-4,8687264E-002
30/08/2025 16:26:18.3148	-5,2977180E+001	-4,9465351E-002
30/08/2025 16:26:20.6148	-5,2971451E+001	-5,0221402E-002
30/08/2025 16:26:22.9148	-5,2973358E+001	-5,0844591E-002
30/08/2025 16:26:25.2148	-5,2977814E+001	-5,1457576E-002
30/08/2025 16:26:27.5148	-5,2982906E+001	-5,2121371E-002
30/08/2025 16:26:29.8148	-5,2977180E+001	-5,2758697E-002
30/08/2025 16:26:32.1148	-5,2975906E+001	-5,3388342E-002
30/08/2025 16:26:34.4148	-5,2977814E+001	-5,3983111E-002
30/08/2025 16:26:36.7148	-5,2979088E+001	-5,4572530E-002
30/08/2025 16:26:39.0148	-5,2979088E+001	-5,5045098E-002
30/08/2025 16:26:41.3148	-5,2979729E+001	-5,5506740E-002
30/08/2025 16:26:43.6148	-5,2977814E+001	-5,6025069E-002
30/08/2025 16:26:45.9148	-5,2975906E+001	-5,6545768E-002
30/08/2025 16:26:48.2148	-5,2979088E+001	-5,7046834E-002
30/08/2025 16:26:50.5148	-5,2969543E+001	-5,7530746E-002
30/08/2025 16:26:52.8148	-5,2980999E+001	-5,8022797E-002
30/08/2025 16:26:55.1148	-5,2977180E+001	-5,8377791E-002
30/08/2025 16:26:57.4148	-5,2982273E+001	-5,8758065E-002
30/08/2025 16:26:59.7148	-5,2980999E+001	-5,9181239E-002
30/08/2025 16:27:02.0148	-5,2982906E+001	-5,9623975E-002
30/08/2025 16:27:04.3148	-5,2976543E+001	-6,0032673E-002
30/08/2025 16:27:06.6148	-5,2974636E+001	-6,0450461E-002
30/08/2025 16:27:08.9148	-5,2980358E+001	-6,0847737E-002
30/08/2025 16:27:11.2148	-5,2971451E+001	-6,1123427E-002
30/08/2025 16:27:13.5148	-5,2980358E+001	-6,1434332E-002
30/08/2025 16:27:15.8148	-5,2979729E+001	-6,1800472E-002
30/08/2025 16:27:18.1148	-5,2981636E+001	-6,2160812E-002
30/08/2025 16:27:20.4148	-5,2980358E+001	-6,2520653E-002
30/08/2025 16:27:22.7148	-5,2981636E+001	-6,2896006E-002
30/08/2025 16:27:25.0148	-5,2975906E+001	-6,3234791E-002
30/08/2025 16:27:27.3148	-5,2977814E+001	-6,3460290E-002
30/08/2025 16:27:29.6148	-5,2977814E+001	-6,3720502E-002
30/08/2025 16:27:31.9148	-5,2985451E+001	-6,4046465E-002
30/08/2025 16:27:34.2148	-5,2978451E+001	-6,4369746E-002
30/08/2025 16:27:36.5148	-5,2974636E+001	-6,4699143E-002
30/08/2025 16:27:38.7150	7,9509903E+001	9,4919157E-004
30/08/2025 16:27:41.0150	7,9511177E+001	8,9855166E-003
30/08/2025 16:27:43.3150	7,9507347E+001	1,4642539E-002
30/08/2025 16:27:45.6150	7,9507347E+001	1,9212134E-002
30/08/2025 16:27:47.9150	7,9509903E+001	2,3121638E-002
30/08/2025 16:27:50.2150	7,9506088E+001	2,6544170E-002
30/08/2025 16:27:52.5150	7,9511177E+001	2,9604686E-002
30/08/2025 16:27:54.8150	7,9514992E+001	3,2428443E-002
30/08/2025 16:27:57.1150	7,9505440E+001	3,4925248E-002
30/08/2025 16:27:59.4150	7,9509262E+001	3,7191518E-002
30/08/2025 16:28:01.7150	7,9506721E+001	3,9346434E-002
30/08/2025 16:28:04.0150	7,9510536E+001	4,1405395E-002
30/08/2025 16:28:06.3150	7,9518806E+001	4,3342154E-002
30/08/2025 16:28:08.6150	7,9507347E+001	4,5165159E-002
30/08/2025 16:28:10.9150	7,9510536E+001	4,6939529E-002
30/08/2025 16:28:13.2150	7,9512444E+001	4,8503961E-002
30/08/2025 16:28:15.5150	7,9509903E+001	4,9962003E-002
30/08/2025 16:28:17.8150	7,9506721E+001	5,1411755E-002
30/08/2025 16:28:20.1150	7,9505440E+001	5,2820824E-002
30/08/2025 16:28:22.4150	7,9512444E+001	5,4186229E-002
30/08/2025 16:28:24.7150	7,9508629E+001	5,5486586E-002
30/08/2025 16:28:27.0150	7,9508629E+001	5,6786597E-002
30/08/2025 16:28:29.3149	7,9506088E+001	5,7903975E-002
30/08/2025 16:28:31.6150	7,9514992E+001	5,8948044E-002
30/08/2025 16:28:33.9149	7,9510536E+001	6,0009845E-002
30/08/2025 16:28:36.2150	7,9511810E+001	6,1100062E-002
30/08/2025 16:28:38.5149	7,9505440E+001	6,2124383E-002
30/08/2025 16:28:40.8149	7,9511177E+001	6,3128807E-002
30/08/2025 16:28:43.1149	7,9507347E+001	6,4107098E-002
30/08/2025 16:28:45.4149	7,9514359E+001	6,4934500E-002
30/08/2025 16:28:47.7149	7,9511177E+001	6,5697998E-002
30/08/2025 16:28:50.0149	7,9511810E+001	6,6513821E-002
30/08/2025 16:28:52.3149	7,9513084E+001	6,7354023E-002
30/08/2025 16:28:54.6149	7,9508629E+001	6,8158440E-002
30/08/2025 16:28:56.9149	7,9513084E+001	6,8957113E-002
30/08/2025 16:28:59.2149	7,9504814E+001	6,9759309E-002
30/08/2025 16:29:01.5149	7,9511177E+001	7,0381269E-002
30/08/2025 16:29:03.8149	7,9511810E+001	7,0965916E-002
30/08/2025 16:29:06.1149	7,9503532E+001	7,1642168E-002
30/08/2025 16:29:08.4149	7,9505440E+001	7,2334953E-002
30/08/2025 16:29:10.7149	7,9507996E+001	7,3027052E-002
30/08/2025 16:29:13.0149	7,9514359E+001	7,3664539E-002
30/08/2025 16:29:15.3149	7,9507996E+001	7,4330203E-002
30/08/2025 16:29:17.6149	7,9511177E+001	7,4838296E-002
30/08/2025 16:29:19.9149	7,9511177E+001	7,5303145E-002
30/08/2025 16:29:22.2149	7,9514359E+001	7,5870410E-002
30/08/2025 16:29:24.5149	7,9504814E+001	7,6466553E-002
30/08/2025 16:29:26.8149	7,9510536E+001	7,7057809E-002
30/08/2025 16:29:29.1149	7,9512444E+001	7,7624455E-002
30/08/2025 16:29:31.4149	7,9511177E+001	7,8220263E-002
30/08/2025 16:29:33.7149	7,9506088E+001	7,8638047E-002
30/08/2025 16:29:36.0149	7,9505440E+001	7,9046629E-002
30/08/2025 16:29:38.2153	7,9776440E-003	4,1499175E-002
30/08/2025 16:29:40.5153	7,9776440E-003	3,6276218E-002
30/08/2025 16:29:42.8153	7,3412773E-003	3,2829348E-002
30/08/2025 16:29:45.1153	6,7049102E-003	3,0171875E-002
30/08/2025 16:29:47.4153	1,0523110E-002	2,7954960E-002
30/08/2025 16:29:49.7153	4,1594426E-003	2,6062664E-002
30/08/2025 16:29:52.0153	6,7049102E-003	2,4449151E-002
30/08/2025 16:29:54.3153	1,2432210E-002	2,3032403E-002
30/08/2025 16:29:56.6153	1,3704944E-002	2,1757757E-002
30/08/2025 16:29:58.9153	2,2503431E-003	2,0580061E-002
30/08/2025 16:30:01.2153	6,0685435E-003	1,9510014E-002
30/08/2025 16:30:03.5153	1,3068578E-002	1,8503109E-002
30/08/2025 16:30:05.8153	7,3412773E-003	1,7546933E-002
30/08/2025 16:30:08.1153	9,8867435E-003	1,6695427E-002
30/08/2025 16:30:10.4153	9,2503773E-003	1,5920317E-002
30/08/2025 16:30:12.7153	2,2503431E-003	1,5178595E-002
30/08/2025 16:30:15.0153	1,1159477E-002	1,4497457E-002
30/08/2025 16:30:17.3153	1,3068578E-002	1,3845045E-002
30/08/2025 16:30:19.6153	1,6139771E-003	1,3202375E-002
30/08/2025 16:30:21.9153	7,3412773E-003	1,2611235E-002
30/08/2025 16:30:24.2153	4,7958097E-003	1,2049472E-002
30/08/2025 16:30:26.5153	1,0523110E-002	1,1540538E-002
30/08/2025 16:30:28.8153	2,8867100E-003	1,1053721E-002
30/08/2025 16:30:31.1153	1,3704944E-002	1,0601209E-002
30/08/2025 16:30:33.4153	9,2503773E-003	1,0156336E-002
30/08/2025 16:30:35.7153	7,9776440E-003	9,7169252E-003
30/08/2025 16:30:38.0153	1,0523110E-002	9,2975693E-003
30/08/2025 16:30:40.3153	1,6139771E-003	8,9194700E-003
30/08/2025 16:30:42.6153	-2,9512335E-004	8,5670399E-003
30/08/2025 16:30:44.9153	2,8867100E-003	8,2331374E-003
30/08/2025 16:30:47.2153	9,2503773E-003	7,9097385E-003
30/08/2025 16:30:49.5153	6,0685435E-003	7,5895875E-003
30/08/2025 16:30:51.8153	6,7049102E-003	7,2816983E-003
30/08/2025 16:30:54.1153	-2,9512335E-004	6,9770180E-003
30/08/2025 16:30:56.4153	6,0685435E-003	6,7013311E-003
30/08/2025 16:30:58.7153	9,2503773E-003	6,4328643E-003
30/08/2025 16:31:01.0153	8,6140092E-003	6,1981273E-003
30/08/2025 16:31:03.3153	2,8867100E-003	5,9531149E-003
30/08/2025 16:31:05.6153	1,3704944E-002	5,7231914E-003
30/08/2025 16:31:07.9153	7,3412773E-003	5,4831449E-003
30/08/2025 16:31:10.2153	9,2503773E-003	5,2590277E-003
30/08/2025 16:31:12.5153	6,7049102E-003	5,0438489E-003
30/08/2025 16:31:14.8153	7,3412773E-003	4,8575872E-003
30/08/2025 16:31:17.1153	5,4321769E-003	4,6707150E-003
30/08/2025 16:31:19.4153	2,8867100E-003	4,4715800E-003
30/08/2025 16:31:21.7153	2,2503431E-003	4,2839819E-003
30/08/2025 16:31:24.0153	8,6140092E-003	4,0958105E-003
30/08/2025 16:31:26.3153	2,2503431E-003	3,9199772E-003
30/08/2025 16:31:28.6153	9,8867435E-003	3,7469713E-003
30/08/2025 16:31:30.9153	2,2503431E-003	3,5917661E-003
30/08/2025 16:31:33.2153	2,2503431E-003	3,4238405E-003
30/08/2025 16:31:35.5153	7,9776440E-003	3,2752822E-003
30/08/2025 16:31:37.7155	-7,9472305E+001	-3,2515295E-002
30/08/2025 16:31:40.0155	-7,9474213E+001	-3,8630638E-002
30/08/2025 16:31:42.3155	-7,9470398E+001	-4,2704705E-002
30/08/2025 16:31:44.6155	-7,9475487E+001	-4,6040833E-002
30/08/2025 16:31:46.9155	-7,9479942E+001	-4,8889112E-002
30/08/2025 16:31:49.2155	-7,9471664E+001	-5,1421363E-002
30/08/2025 16:31:51.5155	-7,9478668E+001	-5,3695466E-002
30/08/2025 16:31:53.8155	-7,9471031E+001	-5,5787701E-002
30/08/2025 16:31:56.1155	-7,9476761E+001	-5,7617806E-002
30/08/2025 16:31:58.4155	-7,9476120E+001	-5,9317689E-002
30/08/2025 16:32:00.7155	-7,9472939E+001	-6,0992360E-002
30/08/2025 16:32:03.0155	-7,9476761E+001	-6,2584333E-002
30/08/2025 16:32:05.3155	-7,9476761E+001	-6,4113580E-002
30/08/2025 16:32:07.6155	-7,9471031E+001	-6,5551601E-002
30/08/2025 16:32:09.9155	-7,9477394E+001	-6,6949755E-002
30/08/2025 16:32:12.2155	-7,9469749E+001	-6,8157583E-002
30/08/2025 16:32:14.5155	-7,9469749E+001	-6,9333024E-002
30/08/2025 16:32:16.8155	-7,9480576E+001	-7,0525274E-002
30/08/2025 16:32:19.1155	-7,9471031E+001	-7,1714543E-002
30/08/2025 16:32:21.4155	-7,9476120E+001	-7,2836995E-002
30/08/2025 16:32:23.7155	-7,9474213E+001	-7,3959686E-002
30/08/2025 16:32:26.0155	-7,9480576E+001	-7,4985385E-002
30/08/2025 16:32:28.3155	-7,9476120E+001	-7,5859047E-002
30/08/2025 16:32:30.6155	-7,9474846E+001	-7,6751396E-002
30/08/2025 16:32:32.9155	-7,9479942E+001	-7,7695228E-002
30/08/2025 16:32:35.2155	-7,9472939E+001	-7,8630969E-002
30/08/2025 16:32:37.5155	-7,9479942E+001	-7,9524420E-002
30/08/2025 16:32:39.8155	-7,9478027E+001	-8,0432996E-002
30/08/2025 16:32:42.1155	-7,9469749E+001	-8,1269227E-002
30/08/2025 16:32:44.4155	-7,9478027E+001	-8,1941500E-002
30/08/2025 16:32:46.7155	-7,9471031E+001	-8,2643874E-002
30/08/2025 16:32:49.0155	-7,9471664E+001	-8,3438091E-002
30/08/2025 16:32:51.3155	-7,9471031E+001	-8,4188670E-002
30/08/2025 16:32:53.6155	-7,9477394E+001	-8,4948882E-002
30/08/2025 16:32:55.9155	-7,9474846E+001	-8,5688621E-002
30/08/2025 16:32:58.2155	-7,9478668E+001	-8,6347185E-002
30/08/2025 16:33:00.5155	-7,9473579E+001	-8,6893663E-002
30/08/2025 16:33:02.8155	-7,9481850E+001	-8,7463371E-002
30/08/2025 16:33:05.1155	-7,9473579E+001	-8,8139310E-002
30/08/2025 16:33:07.4155	-7,9474846E+001	-8,8782869E-002
30/08/2025 16:33:09.7155	-7,9468491E+001	-8,9435242E-002
30/08/2025 16:33:12.0155	-7,9469124E+001	-9,0062477E-002
30/08/2025 16:33:14.3155	-7,9475487E+001	-9,0649948E-002
30/08/2025 16:33:16.6155	-7,9469749E+001	-9,1089860E-002
30/08/2025 16:33:18.9155	-7,9473579E+001	-9,1598138E-002
30/08/2025 16:33:21.2155	-7,9475487E+001	-9,2168540E-002
30/08/2025 16:33:23.5155	-7,9476761E+001	-9,2765898E-002
30/08/2025 16:33:25.8155	-7,9476120E+001	-9,3325265E-002
30/08/2025 16:33:28.1155	-7,9473579E+001	-9,3906008E-002
30/08/2025 16:33:30.4155	-7,9470398E+001	-9,4396494E-002
30/08/2025 16:33:32.7155	-7,9469749E+001	-9,4769053E-002
30/08/2025 16:33:35.0155	-7,9479301E+001	-9,5212631E-002
30/08/2025 16:33:37.2157	1,0601457E+002	-1,5568370E-002
30/08/2025 16:33:39.5157	1,0601266E+002	2,5962072E-003
30/08/2025 16:33:41.8157	1,0601076E+002	1,2635186E-002
30/08/2025 16:33:44.1157	1,0601266E+002	2,0189928E-002
30/08/2025 16:33:46.4157	1,0601012E+002	2,6171152E-002
30/08/2025 16:33:48.7157	1,0601522E+002	3,1230351E-002
30/08/2025 16:33:51.0157	1,0601331E+002	3,5714455E-002
30/08/2025 16:33:53.3157	1,0601140E+002	3,9821565E-002
30/08/2025 16:33:55.6157	1,0601331E+002	4,3545149E-002
30/08/2025 16:33:57.9157	1,0600568E+002	4,7019713E-002
30/08/2025 16:34:00.2157	1,0600885E+002	5,0260261E-002
30/08/2025 16:34:02.5157	1,0601140E+002	5,3138647E-002
30/08/2025 16:34:04.8157	1,0601012E+002	5,5810019E-002
30/08/2025 16:34:07.1157	1,0601140E+002	5,8408361E-002
30/08/2025 16:34:09.4157	1,0601776E+002	6,0912766E-002
30/08/2025 16:34:11.7157	1,0600949E+002	6,3279651E-002
30/08/2025 16:34:14.0157	1,0601140E+002	6,5547109E-002
30/08/2025 16:34:16.3157	1,0601012E+002	6,7747861E-002
30/08/2025 16:34:18.6157	1,0601394E+002	6,9694556E-002
30/08/2025 16:34:20.9157	1,0601266E+002	7,1522951E-002
30/08/2025 16:34:23.2157	1,0602094E+002	7,3371008E-002
30/08/2025 16:34:25.5157	1,0601266E+002	7,5193360E-002
30/08/2025 16:34:27.8157	1,0601394E+002	7,6965362E-002
30/08/2025 16:34:30.1157	1,0600758E+002	7,8645155E-002
30/08/2025 16:34:32.4157	1,0600949E+002	8,0304541E-002
30/08/2025 16:34:34.7157	1,0601012E+002	8,1706397E-002
30/08/2025 16:34:37.0157	1,0601394E+002	8,3053313E-002
30/08/2025 16:34:39.3157	1,0601394E+002	8,4468648E-002
30/08/2025 16:34:41.6157	1,0601522E+002	8,5868746E-002
30/08/2025 16:34:43.9157	1,0600885E+002	8,7225899E-002
30/08/2025 16:34:46.2157	1,0600949E+002	8,8534281E-002
30/08/2025 16:34:48.5157	1,0600503E+002	8,9847542E-002
30/08/2025 16:34:50.8157	1,0601394E+002	9,0922900E-002
30/08/2025 16:34:53.1157	1,0600758E+002	9,1937676E-002
30/08/2025 16:34:55.4157	1,0601457E+002	9,3062885E-002
30/08/2025 16:34:57.7157	1,0600885E+002	9,4223119E-002
30/08/2025 16:35:00.0157	1,0600758E+002	9,5299549E-002
30/08/2025 16:35:02.3157	1,0600822E+002	9,6400194E-002
30/08/2025 16:35:04.6157	1,0600440E+002	9,7442470E-002
30/08/2025 16:35:06.9157	1,0600822E+002	9,8261543E-002
30/08/2025 16:35:09.2157	1,0601585E+002	9,9095672E-002
30/08/2025 16:35:11.5157	1,0601522E+002	1,0002924E-001
30/08/2025 16:35:13.8157	1,0600822E+002	1,0099435E-001
30/08/2025 16:35:16.1157	1,0601012E+002	1,0191783E-001
30/08/2025 16:35:18.4157	1,0601585E+002	1,0284203E-001
30/08/2025 16:35:20.7157	1,0600949E+002	1,0376058E-001
30/08/2025 16:35:23.0157	1,0601266E+002	1,0443686E-001
30/08/2025 16:35:25.3157	1,0600568E+002	1,0514177E-001
30/08/2025 16:35:27.6157	1,0601331E+002	1,0599319E-001
30/08/2025 16:35:29.9157	1,0601457E+002	1,0683008E-001
30/08/2025 16:35:32.2157	1,0600885E+002	1,0768429E-001
30/08/2025 16:35:34.5157	1,0601331E+002	1,0850345E-001
30/08/2025 16:35:36.8157	1,0601457E+002	1,0930655E-001
30/08/2025 16:35:39.0161	9,2503773E-003	5,4495037E-002
30/08/2025 16:35:41.3161	9,8867435E-003	4,8466980E-002
30/08/2025 16:35:43.6161	6,0685435E-003	4,4248063E-002
30/08/2025 16:35:45.9161	2,8867100E-003	4,0924042E-002
30/08/2025 16:35:48.2161	9,2503773E-003	3,8179860E-002
30/08/2025 16:35:50.5161	8,6140092E-003	3,5812091E-002
30/08/2025 16:35:52.8161	4,7958097E-003	3,3699766E-002
30/08/2025 16:35:55.1161	5,4321769E-003	3,1817097E-002
30/08/2025 16:35:57.4161	6,7049102E-003	3,0187462E-002
30/08/2025 16:35:59.7161	9,2503773E-003	2,8697256E-002
30/08/2025 16:36:02.0161	9,8867435E-003	2,7341476E-002
30/08/2025 16:36:04.3161	1,2432210E-002	2,6083177E-002
30/08/2025 16:36:06.6161	1,1795843E-002	2,4895629E-002
30/08/2025 16:36:08.9161	1,1159477E-002	2,3768777E-002
30/08/2025 16:36:11.2161	7,3412773E-003	2,2723597E-002
30/08/2025 16:36:13.5161	1,1795843E-002	2,1781404E-002
30/08/2025 16:36:15.8161	1,1795843E-002	2,0896621E-002
30/08/2025 16:36:18.1161	1,2432210E-002	2,0067727E-002
30/08/2025 16:36:20.4161	9,8867435E-003	1,9277798E-002
30/08/2025 16:36:22.7161	8,6140092E-003	1,8538022E-002
30/08/2025 16:36:25.0161	5,4321769E-003	1,7793283E-002
30/08/2025 16:36:27.3161	1,3068578E-002	1,7111726E-002
30/08/2025 16:36:29.6161	7,9776440E-003	1,6481584E-002
30/08/2025 16:36:31.9161	8,6140092E-003	1,5902096E-002
30/08/2025 16:36:34.2161	2,8867100E-003	1,5341173E-002
30/08/2025 16:36:36.5161	6,7049102E-003	1,4799807E-002
30/08/2025 16:36:38.8161	7,3412773E-003	1,4287971E-002
30/08/2025 16:36:41.1161	4,7958097E-003	1,3759440E-002
30/08/2025 16:36:43.4161	2,2503431E-003	1,3294474E-002
30/08/2025 16:36:45.7161	7,3412773E-003	1,2844980E-002
30/08/2025 16:36:48.0161	4,7958097E-003	1,2435364E-002
30/08/2025 16:36:50.3161	1,1159477E-002	1,2032549E-002
30/08/2025 16:36:52.6161	1,3068578E-002	1,1657964E-002
30/08/2025 16:36:54.9161	1,7523142E-002	1,1286128E-002
30/08/2025 16:36:57.2161	2,8867100E-003	1,0923269E-002
30/08/2025 16:36:59.5161	5,4321769E-003	1,0562092E-002
30/08/2025 16:37:01.8161	5,4321769E-003	1,0243660E-002
30/08/2025 16:37:04.1161	3,5230771E-003	9,9391704E-003
30/08/2025 16:37:06.4161	6,0685435E-003	9,6413661E-003
30/08/2025 16:37:08.7161	1,4341311E-002	9,3534170E-003
30/08/2025 16:37:11.0161	5,4321769E-003	9,0608085E-003
30/08/2025 16:37:13.3161	1,3068578E-002	8,7843575E-003
30/08/2025 16:37:15.6161	5,4321769E-003	8,5082119E-003
30/08/2025 16:37:17.9161	1,0523110E-002	8,2742777E-003
30/08/2025 16:37:20.2161	7,9776440E-003	8,0266297E-003
30/08/2025 16:37:22.5161	1,2432210E-002	7,7916640E-003
30/08/2025 16:37:24.8161	1,1795843E-002	7,5605935E-003
30/08/2025 16:37:27.1161	4,1594426E-003	7,3417486E-003
30/08/2025 16:37:29.4161	9,2503773E-003	7,0993714E-003
30/08/2025 16:37:31.7161	2,2503431E-003	6,8836962E-003
30/08/2025 16:37:34.0161	6,0685435E-003	6,6689760E-003
30/08/2025 16:37:36.3161	3,5230771E-003	6,4698416E-003
30/08/2025 16:37:38.5163	-1,0596679E+002	-4,4328649E-002
30/08/2025 16:37:40.8163	-1,0597060E+002	-5,1402111E-002
30/08/2025 16:37:43.1163	-1,0597825E+002	-5,6527283E-002
30/08/2025 16:37:45.4163	-1,0597507E+002	-6,0623087E-002
30/08/2025 16:37:47.7163	-1,0597697E+002	-6,4160682E-002
30/08/2025 16:37:50.0163	-1,0598079E+002	-6,7419067E-002
30/08/2025 16:37:52.3163	-1,0597060E+002	-7,0382215E-002
30/08/2025 16:37:54.6163	-1,0596806E+002	-7,3122807E-002
30/08/2025 16:37:56.9163	-1,0597189E+002	-7,5700559E-002
30/08/2025 16:37:59.2163	-1,0598079E+002	-7,8093767E-002
30/08/2025 16:38:01.5163	-1,0597697E+002	-8,0191381E-002
30/08/2025 16:38:03.8163	-1,0597507E+002	-8,2220666E-002
30/08/2025 16:38:06.1163	-1,0597060E+002	-8,4274545E-002
30/08/2025 16:38:08.4163	-1,0596742E+002	-8,6202055E-002
30/08/2025 16:38:10.7163	-1,0596806E+002	-8,8097028E-002
30/08/2025 16:38:13.0163	-1,0597189E+002	-8,9911669E-002
30/08/2025 16:38:15.3163	-1,0597952E+002	-9,1567159E-002
30/08/2025 16:38:17.6163	-1,0597379E+002	-9,3067035E-002
30/08/2025 16:38:19.9163	-1,0598525E+002	-9,4544820E-002
30/08/2025 16:38:22.2163	-1,0597761E+002	-9,6111506E-002
30/08/2025 16:38:24.5163	-1,0597507E+002	-9,7609662E-002
30/08/2025 16:38:26.8163	-1,0597314E+002	-9,9067084E-002
30/08/2025 16:38:29.1163	-1,0597507E+002	-1,0051451E-001
30/08/2025 16:38:31.4163	-1,0597507E+002	-1,0182899E-001
30/08/2025 16:38:33.7163	-1,0597697E+002	-1,0297472E-001
30/08/2025 16:38:36.0163	-1,0597314E+002	-1,0416590E-001
30/08/2025 16:38:38.3163	-1,0597633E+002	-1,0542443E-001
30/08/2025 16:38:40.6163	-1,0597507E+002	-1,0667194E-001
30/08/2025 16:38:42.9163	-1,0598016E+002	-1,0786951E-001
30/08/2025 16:38:45.2163	-1,0597443E+002	-1,0907234E-001
30/08/2025 16:38:47.5163	-1,0597697E+002	-1,1013436E-001
30/08/2025 16:38:49.8163	-1,0597124E+002	-1,1103904E-001
30/08/2025 16:38:52.1163	-1,0597570E+002	-1,1201077E-001
30/08/2025 16:38:54.4163	-1,0597379E+002	-1,1307184E-001
30/08/2025 16:38:56.7163	-1,0597633E+002	-1,1412141E-001
30/08/2025 16:38:59.0163	-1,0596997E+002	-1,1514845E-001
30/08/2025 16:39:01.3163	-1,0597570E+002	-1,1620349E-001
30/08/2025 16:39:03.6163	-1,0597443E+002	-1,1710912E-001
30/08/2025 16:39:05.9163	-1,0597633E+002	-1,1785948E-001
30/08/2025 16:39:08.2163	-1,0597952E+002	-1,1870029E-001
30/08/2025 16:39:10.5163	-1,0597761E+002	-1,1967862E-001
30/08/2025 16:39:12.8163	-1,0598016E+002	-1,2059369E-001
30/08/2025 16:39:15.1163	-1,0596933E+002	-1,2152996E-001
30/08/2025 16:39:17.4163	-1,0597443E+002	-1,2245947E-001
30/08/2025 16:39:19.7163	-1,0597697E+002	-1,2319764E-001
30/08/2025 16:39:22.0163	-1,0598079E+002	-1,2387607E-001
30/08/2025 16:39:24.3163	-1,0597507E+002	-1,2462108E-001
30/08/2025 16:39:26.6163	-1,0597507E+002	-1,2550746E-001
30/08/2025 16:39:28.9163	-1,0597570E+002	-1,2635981E-001
30/08/2025 16:39:31.2163	-1,0597697E+002	-1,2721476E-001
30/08/2025 16:39:33.5163	-1,0597314E+002	-1,2807842E-001
30/08/2025 16:39:35.8163	-1,0597443E+002	-1,2881078E-001
30/08/2025 16:39:36.8165	-1,0598016E+002	-1,2891538E-001