File: data/phase_2a/Sergey/2/3.3/02 polarisation/SN50_C6aD1E1_lr 0,1MFeCN6_in_1M_KCl_3306mL_symmetric_balanced_4_point_PEIS_10mHz_200kHz_10mV_03_CP_C16.txt
time/s	I/mA	<Ewe/V>
30/08/2025 16:39:36.9187	9,2506140E-002	-8,5116394E-002
30/08/2025 16:39:39.9187	1,1159762E-001	-6,9424897E-002
30/08/2025 16:39:42.9187	1,3068911E-001	-6,2321175E-002
30/08/2025 16:39:45.9187	1,1159762E-001	-5,7542630E-002
30/08/2025 16:39:48.9187	1,1796144E-001	-5,3690959E-002
30/08/2025 16:39:51.9187	8,6142294E-002	-5,0569784E-002
30/08/2025 16:39:54.9187	9,8869957E-002	-4,7914639E-002
30/08/2025 16:39:57.9187	8,6142294E-002	-4,5488928E-002
30/08/2025 16:40:00.9187	9,2506140E-002	-4,3505296E-002
30/08/2025 16:40:03.9187	1,6250826E-001	-4,1542329E-002
30/08/2025 16:40:06.9187	4,1595493E-002	-3,9912350E-002
30/08/2025 16:40:09.9187	1,1796144E-001	-3,8315415E-002
30/08/2025 16:40:12.9187	9,2506140E-002	-3,6861040E-002
30/08/2025 16:40:15.9187	1,0523378E-001	-3,5570312E-002
30/08/2025 16:40:18.9187	1,1796144E-001	-3,4280084E-002
30/08/2025 16:40:21.9187	9,2506140E-002	-3,3192728E-002
30/08/2025 16:40:24.9187	5,4323155E-002	-3,2073326E-002
30/08/2025 16:40:27.9187	1,2432528E-001	-3,1085560E-002
30/08/2025 16:40:30.9187	1,8159975E-001	-3,0127170E-002
30/08/2025 16:40:33.9187	7,9778478E-002	-2,9187726E-002
30/08/2025 16:40:36.9187	8,6142294E-002	-2,8386449E-002
30/08/2025 16:40:39.9187	1,3068911E-001	-2,7553508E-002
30/08/2025 16:40:42.9187	1,1159762E-001	-2,6836729E-002
30/08/2025 16:40:45.9187	9,8869957E-002	-2,6097337E-002
30/08/2025 16:40:48.9187	9,2506140E-002	-2,5424143E-002
30/08/2025 16:40:51.9187	1,4341676E-001	-2,4804890E-002
30/08/2025 16:40:54.9187	6,0686987E-002	-2,4170967E-002
30/08/2025 16:40:57.9187	1,6140183E-002	-2,3615086E-002
30/08/2025 16:41:00.9187	1,1159762E-001	-2,3042168E-002
30/08/2025 16:41:03.9187	1,3705294E-001	-2,2528421E-002
30/08/2025 16:41:06.9187	1,1159762E-001	-2,2025293E-002
30/08/2025 16:41:09.9187	9,8869957E-002	-2,1544857E-002
30/08/2025 16:41:12.9187	6,7050815E-002	-2,1084474E-002
30/08/2025 16:41:15.9187	1,5614443E-001	-2,0634253E-002
30/08/2025 16:41:18.9187	7,9778478E-002	-2,0238735E-002
30/08/2025 16:41:21.9187	1,0523378E-001	-1,9799819E-002
30/08/2025 16:41:24.9187	7,3414646E-002	-1,9431347E-002
30/08/2025 16:41:27.9187	6,0686987E-002	-1,9043660E-002
30/08/2025 16:41:30.9187	1,1159762E-001	-1,8673161E-002
30/08/2025 16:41:33.9187	2,8867837E-002	-1,8339220E-002
30/08/2025 16:41:36.9185	6,7050815E-002	-1,7977877E-002
30/08/2025 16:41:39.9185	1,3256197E+002	5,1114559E-002
30/08/2025 16:41:42.9185	1,3261288E+002	5,9950098E-002
30/08/2025 16:41:45.9185	1,3258107E+002	6,6970848E-002
30/08/2025 16:41:48.9185	1,3258107E+002	7,2436340E-002
30/08/2025 16:41:51.9185	1,3260016E+002	7,7354081E-002
30/08/2025 16:41:54.9185	1,3260652E+002	8,1771605E-002
30/08/2025 16:41:57.9185	1,3258107E+002	8,5640579E-002
30/08/2025 16:42:00.9185	1,3261288E+002	8,9561351E-002
30/08/2025 16:42:03.9185	1,3260016E+002	9,2792884E-002
30/08/2025 16:42:06.9185	1,3257471E+002	9,6143417E-002
30/08/2025 16:42:09.9185	1,3259380E+002	9,9050291E-002
30/08/2025 16:42:12.9185	1,3257471E+002	1,0182568E-001
30/08/2025 16:42:15.9185	1,3255562E+002	1,0468718E-001
30/08/2025 16:42:18.9185	1,3252379E+002	1,0709235E-001
30/08/2025 16:42:21.9185	1,3261288E+002	1,0981984E-001
30/08/2025 16:42:24.9185	1,3256834E+002	1,1195501E-001
30/08/2025 16:42:27.9185	1,3257471E+002	1,1427426E-001
30/08/2025 16:42:30.9185	1,3253015E+002	1,1644809E-001
30/08/2025 16:42:33.9185	1,3259380E+002	1,1839352E-001
30/08/2025 16:42:36.9185	1,3251108E+002	1,2060723E-001
30/08/2025 16:42:39.9185	1,3256834E+002	1,2235803E-001
30/08/2025 16:42:42.9185	1,3256834E+002	1,2450115E-001
30/08/2025 16:42:45.9185	1,3260016E+002	1,2613533E-001
30/08/2025 16:42:48.9185	1,3259380E+002	1,2788510E-001
30/08/2025 16:42:51.9185	1,3253015E+002	1,2967902E-001
30/08/2025 16:42:54.9185	1,3261288E+002	1,3115931E-001
30/08/2025 16:42:57.9185	1,3258743E+002	1,3312241E-001
30/08/2025 16:43:00.9185	1,3260652E+002	1,3446690E-001
30/08/2025 16:43:03.9185	1,3263199E+002	1,3619532E-001
30/08/2025 16:43:06.9185	1,3254289E+002	1,3761981E-001
30/08/2025 16:43:09.9185	1,3254289E+002	1,3904019E-001
30/08/2025 16:43:12.9185	1,3256834E+002	1,4074558E-001
30/08/2025 16:43:15.9185	1,3256197E+002	1,4198050E-001
30/08/2025 16:43:18.9185	1,3256834E+002	1,4379697E-001
30/08/2025 16:43:21.9185	1,3260652E+002	1,4497940E-001
30/08/2025 16:43:24.9185	1,3258743E+002	1,4653797E-001
30/08/2025 16:43:27.9185	1,3255562E+002	1,4799702E-001
30/08/2025 16:43:30.9185	1,3262563E+002	1,4921577E-001
30/08/2025 16:43:33.9185	1,3256834E+002	1,5094721E-001
30/08/2025 16:43:36.9185	1,3258107E+002	1,5215687E-001
30/08/2025 16:43:39.8187	1,3705294E-001	7,6862298E-002
30/08/2025 16:43:42.8187	1,4978060E-001	6,7842379E-002
30/08/2025 16:43:45.8187	8,6142294E-002	6,1529424E-002
30/08/2025 16:43:48.8187	7,9778478E-002	5,6874570E-002
30/08/2025 16:43:51.8187	7,3414646E-002	5,2841298E-002
30/08/2025 16:43:54.8187	1,0523378E-001	4,9601663E-002
30/08/2025 16:43:57.8187	1,0523378E-001	4,6670109E-002
30/08/2025 16:44:00.8187	9,2506140E-002	4,4048239E-002
30/08/2025 16:44:03.8187	1,3068911E-001	4,1782580E-002
30/08/2025 16:44:06.8187	1,8159975E-001	3,9584037E-002
30/08/2025 16:44:09.8187	2,0705505E-001	3,7767913E-002
30/08/2025 16:44:12.8187	4,7959324E-002	3,5930663E-002
30/08/2025 16:44:15.8187	1,1159762E-001	3,4322537E-002
30/08/2025 16:44:18.8187	1,3068911E-001	3,2781444E-002
30/08/2025 16:44:21.8187	1,1796144E-001	3,1308278E-002
30/08/2025 16:44:24.8187	1,0523378E-001	3,0031035E-002
30/08/2025 16:44:27.8187	1,0523378E-001	2,8714560E-002
30/08/2025 16:44:30.8187	1,6887209E-001	2,7588816E-002
30/08/2025 16:44:33.8187	1,1159762E-001	2,6440000E-002
30/08/2025 16:44:36.8187	9,2506140E-002	2,5369111E-002
30/08/2025 16:44:39.8187	1,4978060E-001	2,4395442E-002
30/08/2025 16:44:42.8187	9,2506140E-002	2,3416843E-002
30/08/2025 16:44:45.8187	1,1796144E-001	2,2565067E-002
30/08/2025 16:44:48.8187	1,3068911E-001	2,1684224E-002
30/08/2025 16:44:51.8187	1,5614443E-001	2,0916563E-002
30/08/2025 16:44:54.8187	1,3068911E-001	2,0136144E-002
30/08/2025 16:44:57.8187	1,2432528E-001	1,9395951E-002
30/08/2025 16:45:00.8187	6,7050815E-002	1,8716492E-002
30/08/2025 16:45:03.8187	1,1796144E-001	1,8032413E-002
30/08/2025 16:45:06.8187	8,6142294E-002	1,7426757E-002
30/08/2025 16:45:09.8187	6,7050815E-002	1,6789360E-002
30/08/2025 16:45:12.8187	4,1595493E-002	1,6223278E-002
30/08/2025 16:45:15.8187	1,0523378E-001	1,5661821E-002
30/08/2025 16:45:18.8187	9,2506140E-002	1,5105366E-002
30/08/2025 16:45:21.8187	1,0523378E-001	1,4622026E-002
30/08/2025 16:45:24.8187	9,2506140E-002	1,4093763E-002
30/08/2025 16:45:27.8187	7,9778478E-002	1,3644956E-002
30/08/2025 16:45:30.8187	1,5614443E-001	1,3153288E-002
30/08/2025 16:45:33.8187	1,6250826E-001	1,2706735E-002
30/08/2025 16:45:36.8187	1,1159762E-001	1,2281993E-002
30/08/2025 16:45:39.7189	-1,3239604E+002	-5,5114429E-002
30/08/2025 16:45:42.7189	-1,3237695E+002	-6,4632826E-002
30/08/2025 16:45:45.7189	-1,3237695E+002	-7,1590319E-002
30/08/2025 16:45:48.7189	-1,3233240E+002	-7,7750124E-002
30/08/2025 16:45:51.7189	-1,3243423E+002	-8,2724102E-002
30/08/2025 16:45:54.7189	-1,3244060E+002	-8,7385826E-002
30/08/2025 16:45:57.7189	-1,3237061E+002	-9,1609254E-002
30/08/2025 16:46:00.7189	-1,3238968E+002	-9,5388040E-002
30/08/2025 16:46:03.7189	-1,3239604E+002	-9,9302858E-002
30/08/2025 16:46:06.7189	-1,3245969E+002	-1,0256759E-001
30/08/2025 16:46:09.7189	-1,3239604E+002	-1,0598248E-001
30/08/2025 16:46:12.7189	-1,3237695E+002	-1,0894357E-001
30/08/2025 16:46:15.7189	-1,3239604E+002	-1,1183386E-001
30/08/2025 16:46:18.7189	-1,3244696E+002	-1,1476462E-001
30/08/2025 16:46:21.7189	-1,3245332E+002	-1,1730886E-001
30/08/2025 16:46:24.7189	-1,3237061E+002	-1,2016108E-001
30/08/2025 16:46:27.7189	-1,3235150E+002	-1,2243437E-001
30/08/2025 16:46:30.7189	-1,3240878E+002	-1,2493695E-001
30/08/2025 16:46:33.7189	-1,3238332E+002	-1,2721056E-001
30/08/2025 16:46:36.7189	-1,3239604E+002	-1,2930638E-001
30/08/2025 16:46:39.7189	-1,3231967E+002	-1,3169056E-001
30/08/2025 16:46:42.7189	-1,3235150E+002	-1,3359120E-001
30/08/2025 16:46:45.7189	-1,3236423E+002	-1,3591537E-001
30/08/2025 16:46:48.7189	-1,3235150E+002	-1,3769057E-001
30/08/2025 16:46:51.7189	-1,3235150E+002	-1,3965459E-001
30/08/2025 16:46:54.7189	-1,3238968E+002	-1,4159913E-001
30/08/2025 16:46:57.7189	-1,3240878E+002	-1,4325117E-001
30/08/2025 16:47:00.7189	-1,3242787E+002	-1,4540626E-001
30/08/2025 16:47:03.7189	-1,3238968E+002	-1,4691222E-001
30/08/2025 16:47:06.7189	-1,3240878E+002	-1,4885801E-001
30/08/2025 16:47:09.7189	-1,3244696E+002	-1,5042646E-001
30/08/2025 16:47:12.7189	-1,3238332E+002	-1,5205441E-001
30/08/2025 16:47:15.7189	-1,3240242E+002	-1,5395957E-001
30/08/2025 16:47:18.7189	-1,3233878E+002	-1,5534741E-001
30/08/2025 16:47:21.7189	-1,3242149E+002	-1,5738797E-001
30/08/2025 16:47:24.7189	-1,3240242E+002	-1,5873919E-001
30/08/2025 16:47:27.7189	-1,3244696E+002	-1,6054994E-001
30/08/2025 16:47:30.7189	-1,3238968E+002	-1,6219753E-001
30/08/2025 16:47:33.7189	-1,3242787E+002	-1,6361722E-001
30/08/2025 16:47:36.7189	-1,3233878E+002	-1,6558893E-001
30/08/2025 16:47:39.6191	1,5913097E+002	-3,5528786E-004
30/08/2025 16:47:42.6191	1,5901006E+002	1,9980213E-002
30/08/2025 16:47:45.6191	1,5902278E+002	3,3405285E-002
30/08/2025 16:47:48.6191	1,5911188E+002	4,4201002E-002
30/08/2025 16:47:51.6191	1,5906734E+002	5,3228032E-002
30/08/2025 16:47:54.6191	1,5901006E+002	6,1050020E-002
30/08/2025 16:47:57.6191	1,5907368E+002	6,8351038E-002
30/08/2025 16:48:00.6191	1,5904825E+002	7,4561462E-002
30/08/2025 16:48:03.6191	1,5908005E+002	8,0596961E-002
30/08/2025 16:48:06.6191	1,5908005E+002	8,5984074E-002
30/08/2025 16:48:09.6191	1,5908643E+002	9,1050141E-002
30/08/2025 16:48:12.6191	1,5901642E+002	9,6037328E-002
30/08/2025 16:48:15.6191	1,5902278E+002	1,0044236E-001
30/08/2025 16:48:18.6191	1,5906734E+002	1,0500646E-001
30/08/2025 16:48:21.6191	1,5911188E+002	1,0887994E-001
30/08/2025 16:48:24.6191	1,5902278E+002	1,1281106E-001
30/08/2025 16:48:27.6191	1,5905460E+002	1,1658198E-001
30/08/2025 16:48:30.6191	1,5903551E+002	1,1999664E-001
30/08/2025 16:48:33.6191	1,5906734E+002	1,2365098E-001
30/08/2025 16:48:36.6191	1,5907368E+002	1,2670580E-001
30/08/2025 16:48:39.6191	1,5899097E+002	1,3006748E-001
30/08/2025 16:48:42.6191	1,5909914E+002	1,3292728E-001
30/08/2025 16:48:45.6191	1,5910551E+002	1,3574994E-001
30/08/2025 16:48:48.6191	1,5906096E+002	1,3868745E-001
30/08/2025 16:48:51.6191	1,5912460E+002	1,4114992E-001
30/08/2025 16:48:54.6191	1,5901642E+002	1,4413664E-001
30/08/2025 16:48:57.6191	1,5906096E+002	1,4634325E-001
30/08/2025 16:49:00.6191	1,5906096E+002	1,4888443E-001
30/08/2025 16:49:03.6191	1,5905460E+002	1,5120870E-001
30/08/2025 16:49:06.6191	1,5904185E+002	1,5333606E-001
30/08/2025 16:49:09.6191	1,5909914E+002	1,5588354E-001
30/08/2025 16:49:12.6191	1,5905460E+002	1,5781012E-001
30/08/2025 16:49:15.6191	1,5908005E+002	1,6030784E-001
30/08/2025 16:49:18.6191	1,5905460E+002	1,6215242E-001
30/08/2025 16:49:21.6191	1,5915642E+002	1,6428378E-001
30/08/2025 16:49:24.6191	1,5908005E+002	1,6644059E-001
30/08/2025 16:49:27.6191	1,5906734E+002	1,6819707E-001
30/08/2025 16:49:30.6191	1,5911188E+002	1,7061345E-001
30/08/2025 16:49:33.6191	1,5903551E+002	1,7233099E-001
30/08/2025 16:49:36.6191	1,5908643E+002	1,7467816E-001
30/08/2025 16:49:39.5195	7,3414646E-002	8,4380597E-002
30/08/2025 16:49:42.5195	1,0523378E-001	7,2815925E-002
30/08/2025 16:49:45.5195	1,2432528E-001	6,5541074E-002
30/08/2025 16:49:48.5195	1,1159762E-001	5,9814032E-002
30/08/2025 16:49:51.5195	7,9778478E-002	5,5313617E-002
30/08/2025 16:49:54.5195	6,0686987E-002	5,1492356E-002
30/08/2025 16:49:57.5195	1,0523378E-001	4,8103321E-002
30/08/2025 16:50:00.5195	8,6142294E-002	4,5294922E-002
30/08/2025 16:50:03.5195	1,5614443E-001	4,2619608E-002
30/08/2025 16:50:06.5195	1,3068911E-001	4,0404949E-002
30/08/2025 16:50:09.5195	3,4125184E-003	3,8234483E-002
30/08/2025 16:50:12.5195	6,0686987E-002	3,6311548E-002
30/08/2025 16:50:15.5195	7,3414646E-002	3,4543790E-002
30/08/2025 16:50:18.5195	1,3068911E-001	3,2866362E-002
30/08/2025 16:50:21.5195	3,5231672E-002	3,1436246E-002
30/08/2025 16:50:24.5195	6,0686987E-002	2,9966172E-002
30/08/2025 16:50:27.5195	9,8869957E-002	2,8710624E-002
30/08/2025 16:50:30.5195	1,0523378E-001	2,7445454E-002
30/08/2025 16:50:33.5195	1,1796144E-001	2,6298663E-002
30/08/2025 16:50:36.5195	1,6250826E-001	2,5255583E-002
30/08/2025 16:50:39.5195	1,4341676E-001	2,4211433E-002
30/08/2025 16:50:42.5195	9,8869957E-002	2,3313474E-002
30/08/2025 16:50:45.5195	1,0523378E-001	2,2397676E-002
30/08/2025 16:50:48.5195	1,4978060E-001	2,1569317E-002
30/08/2025 16:50:51.5195	4,1595493E-002	2,0787332E-002
30/08/2025 16:50:54.5195	6,7050815E-002	2,0021241E-002
30/08/2025 16:50:57.5195	9,8869957E-002	1,9342851E-002
30/08/2025 16:51:00.5195	1,0523378E-001	1,8650942E-002
30/08/2025 16:51:03.5195	9,8869957E-002	1,8043071E-002
30/08/2025 16:51:06.5195	9,8869957E-002	1,7431306E-002
30/08/2025 16:51:09.5195	1,3705294E-001	1,6854718E-002
30/08/2025 16:51:12.5195	9,2506140E-002	1,6307930E-002
30/08/2025 16:51:15.5195	8,6142294E-002	1,5774738E-002
30/08/2025 16:51:18.5195	1,2432528E-001	1,5303470E-002
30/08/2025 16:51:21.5195	1,1159762E-001	1,4799196E-002
30/08/2025 16:51:24.5195	7,3414646E-002	1,4358792E-002
30/08/2025 16:51:27.5195	1,0523378E-001	1,3883398E-002
30/08/2025 16:51:30.5195	8,6142294E-002	1,3466601E-002
30/08/2025 16:51:33.5195	1,3705294E-001	1,3072611E-002
30/08/2025 16:51:36.5195	7,9778478E-002	1,2632398E-002
30/08/2025 16:51:39.4197	-1,5890138E+002	-6,6721350E-002
30/08/2025 16:51:42.4197	-1,5890138E+002	-7,8099988E-002
30/08/2025 16:51:45.4197	-1,5886957E+002	-8,7011471E-002
30/08/2025 16:51:48.4197	-1,5885048E+002	-9,4011597E-002
30/08/2025 16:51:51.4197	-1,5886957E+002	-1,0025181E-001
30/08/2025 16:51:54.4197	-1,5890776E+002	-1,0600299E-001
30/08/2025 16:51:57.4197	-1,5889502E+002	-1,1100772E-001
30/08/2025 16:52:00.4197	-1,5886320E+002	-1,1614252E-001
30/08/2025 16:52:03.4197	-1,5895229E+002	-1,2039983E-001
30/08/2025 16:52:06.4197	-1,5888231E+002	-1,2476414E-001
30/08/2025 16:52:09.4197	-1,5892683E+002	-1,2868197E-001
30/08/2025 16:52:12.4197	-1,5891411E+002	-1,3237424E-001
30/08/2025 16:52:15.4197	-1,5885048E+002	-1,3629687E-001
30/08/2025 16:52:18.4197	-1,5883774E+002	-1,3961436E-001
30/08/2025 16:52:21.4197	-1,5886320E+002	-1,4328848E-001
30/08/2025 16:52:24.4197	-1,5886320E+002	-1,4628184E-001
30/08/2025 16:52:27.4197	-1,5890776E+002	-1,4947222E-001
30/08/2025 16:52:30.4197	-1,5895229E+002	-1,5257446E-001
30/08/2025 16:52:33.4197	-1,5885684E+002	-1,5532143E-001
30/08/2025 16:52:36.4197	-1,5888231E+002	-1,5848720E-001
30/08/2025 16:52:39.4197	-1,5886320E+002	-1,6103630E-001
30/08/2025 16:52:42.4197	-1,5889502E+002	-1,6400884E-001
30/08/2025 16:52:45.4197	-1,5882503E+002	-1,6650359E-001
30/08/2025 16:52:48.4197	-1,5889502E+002	-1,6902335E-001
30/08/2025 16:52:51.4197	-1,5897139E+002	-1,7176355E-001
30/08/2025 16:52:54.4197	-1,5888231E+002	-1,7401639E-001
30/08/2025 16:52:57.4197	-1,5888866E+002	-1,7693856E-001
30/08/2025 16:53:00.4197	-1,5890776E+002	-1,7905878E-001
30/08/2025 16:53:03.4197	-1,5888866E+002	-1,8165433E-001
30/08/2025 16:53:06.4197	-1,5890776E+002	-1,8399459E-001
30/08/2025 16:53:09.4197	-1,5890776E+002	-1,8623950E-001
30/08/2025 16:53:12.4197	-1,5888231E+002	-1,8905076E-001
30/08/2025 16:53:15.4197	-1,5890138E+002	-1,9115968E-001
30/08/2025 16:53:18.4197	-1,5890138E+002	-1,9405225E-001
30/08/2025 16:53:21.4197	-1,5890776E+002	-1,9625174E-001
30/08/2025 16:53:24.4197	-1,5890776E+002	-1,9891579E-001
30/08/2025 16:53:27.4197	-1,5887593E+002	-2,0171735E-001
30/08/2025 16:53:30.4197	-1,5888866E+002	-2,0414497E-001
30/08/2025 16:53:33.4197	-1,5884413E+002	-2,0755444E-001
30/08/2025 16:53:36.4197	-1,5890138E+002	-2,1029638E-001
30/08/2025 16:53:39.3199	1,8562360E+002	-6,1698840E-003
30/08/2025 16:53:42.3199	1,8562994E+002	1,8994279E-002
30/08/2025 16:53:45.3199	1,8561086E+002	3,5681639E-002
30/08/2025 16:53:48.3199	1,8557903E+002	4,8684720E-002
30/08/2025 16:53:51.3199	1,8559177E+002	5,9430160E-002
30/08/2025 16:53:54.3199	1,8564905E+002	6,9149263E-002
30/08/2025 16:53:57.3199	1,8565540E+002	7,7387311E-002
30/08/2025 16:54:00.3199	1,8564905E+002	8,5176453E-002
30/08/2025 16:54:03.3199	1,8561086E+002	9,2239104E-002
30/08/2025 16:54:06.3199	1,8563631E+002	9,8780602E-002
30/08/2025 16:54:09.3199	1,8560449E+002	1,0526488E-001
30/08/2025 16:54:12.3199	1,8555357E+002	1,1092836E-001
30/08/2025 16:54:15.3199	1,8567448E+002	1,1672362E-001
30/08/2025 16:54:18.3199	1,8561086E+002	1,2184008E-001
30/08/2025 16:54:21.3199	1,8557903E+002	1,2685803E-001
30/08/2025 16:54:24.3199	1,8561086E+002	1,3182116E-001
30/08/2025 16:54:27.3199	1,8556631E+002	1,3626541E-001
30/08/2025 16:54:30.3199	1,8561722E+002	1,4105837E-001
30/08/2025 16:54:33.3199	1,8562360E+002	1,4505288E-001
30/08/2025 16:54:36.3199	1,8561722E+002	1,4931189E-001
30/08/2025 16:54:39.3199	1,8564267E+002	1,5320264E-001
30/08/2025 16:54:42.3199	1,8566812E+002	1,5685819E-001
30/08/2025 16:54:45.3199	1,8564905E+002	1,6078755E-001
30/08/2025 16:54:48.3199	1,8558540E+002	1,6411676E-001
30/08/2025 16:54:51.3199	1,8564267E+002	1,6797496E-001
30/08/2025 16:54:54.3199	1,8564267E+002	1,7102762E-001
30/08/2025 16:54:57.3199	1,8561086E+002	1,7428452E-001
30/08/2025 16:55:00.3199	1,8559813E+002	1,7753851E-001
30/08/2025 16:55:03.3199	1,8565540E+002	1,8039145E-001
30/08/2025 16:55:06.3199	1,8565540E+002	1,8385872E-001
30/08/2025 16:55:09.3199	1,8564905E+002	1,8648666E-001
30/08/2025 16:55:12.3199	1,8561086E+002	1,8971178E-001
30/08/2025 16:55:15.3199	1,8568088E+002	1,9240281E-001
30/08/2025 16:55:18.3199	1,8553450E+002	1,9517246E-001
30/08/2025 16:55:21.3199	1,8562994E+002	1,9830102E-001
30/08/2025 16:55:24.3199	1,8564267E+002	2,0078298E-001
30/08/2025 16:55:27.3199	1,8561722E+002	2,0415290E-001
30/08/2025 16:55:30.3199	1,8560449E+002	2,0664221E-001
30/08/2025 16:55:33.3199	1,8557903E+002	2,0976135E-001
30/08/2025 16:55:36.3199	1,8561086E+002	2,1270151E-001
30/08/2025 16:55:39.2203	1,0523378E-001	1,0342072E-001
30/08/2025 16:55:42.2203	1,3068911E-001	8,8684559E-002
30/08/2025 16:55:45.2203	1,7523590E-001	7,9407997E-002
30/08/2025 16:55:48.2203	7,3414646E-002	7,2575159E-002
30/08/2025 16:55:51.2203	1,3705294E-001	6,7171052E-002
30/08/2025 16:55:54.2203	1,3068911E-001	6,2500492E-002
30/08/2025 16:55:57.2203	1,4341676E-001	5,8707464E-002
30/08/2025 16:56:00.2203	1,1159762E-001	5,5167582E-002
30/08/2025 16:56:03.2203	5,4323155E-002	5,2215323E-002
30/08/2025 16:56:06.2203	8,6142294E-002	4,9418878E-002
30/08/2025 16:56:09.2203	1,4341676E-001	4,6895526E-002
30/08/2025 16:56:12.2203	1,6140183E-002	4,4643659E-002
30/08/2025 16:56:15.2203	1,3705294E-001	4,2463224E-002
30/08/2025 16:56:18.2203	7,3414646E-002	4,0622760E-002
30/08/2025 16:56:21.2203	1,7523590E-001	3,8759805E-002
30/08/2025 16:56:24.2203	1,6250826E-001	3,7119549E-002
30/08/2025 16:56:27.2203	2,8867837E-002	3,5532050E-002
30/08/2025 16:56:30.2203	5,4323155E-002	3,4027558E-002
30/08/2025 16:56:33.2203	7,9778478E-002	3,2725599E-002
30/08/2025 16:56:36.2203	1,3705294E-001	3,1391781E-002
30/08/2025 16:56:39.2203	7,3414646E-002	3,0232958E-002
30/08/2025 16:56:42.2203	5,4323155E-002	2,9060915E-002
30/08/2025 16:56:45.2203	1,2432528E-001	2,7997172E-002
30/08/2025 16:56:48.2203	2,3887421E-001	2,7018839E-002
30/08/2025 16:56:51.2203	1,3068911E-001	2,6035810E-002
30/08/2025 16:56:54.2203	3,5231672E-002	2,5172690E-002
30/08/2025 16:56:57.2203	1,6250826E-001	2,4296276E-002
30/08/2025 16:57:00.2203	1,1796144E-001	2,3522235E-002
30/08/2025 16:57:03.2203	6,7050815E-002	2,2753965E-002
30/08/2025 16:57:06.2203	1,0523378E-001	2,2034857E-002
30/08/2025 16:57:09.2203	1,3068911E-001	2,1352459E-002
30/08/2025 16:57:12.2203	7,3414646E-002	2,0667424E-002
30/08/2025 16:57:15.2203	1,1159762E-001	2,0072808E-002
30/08/2025 16:57:18.2203	1,1159762E-001	1,9448396E-002
30/08/2025 16:57:21.2203	7,9778478E-002	1,8895764E-002
30/08/2025 16:57:24.2203	1,2432528E-001	1,8330179E-002
30/08/2025 16:57:27.2203	7,9778478E-002	1,7778577E-002
30/08/2025 16:57:30.2203	6,0686987E-002	1,7295236E-002
30/08/2025 16:57:33.2203	4,7959324E-002	1,6773544E-002
30/08/2025 16:57:36.2203	1,1159762E-001	1,6315684E-002
30/08/2025 16:57:39.1205	-1,8536220E+002	-7,4017793E-002
30/08/2025 16:57:42.1205	-1,8537491E+002	-8,8491209E-002
30/08/2025 16:57:45.1205	-1,8538129E+002	-9,8769702E-002
30/08/2025 16:57:48.1205	-1,8535582E+002	-1,0728364E-001
30/08/2025 16:57:51.1205	-1,8538765E+002	-1,1503614E-001
30/08/2025 16:57:54.1205	-1,8536220E+002	-1,2167936E-001
30/08/2025 16:57:57.1205	-1,8527310E+002	-1,2830234E-001
30/08/2025 16:58:00.1205	-1,8539400E+002	-1,3384989E-001
30/08/2025 16:58:03.1205	-1,8538765E+002	-1,3940297E-001
30/08/2025 16:58:06.1205	-1,8538765E+002	-1,4460438E-001
30/08/2025 16:58:09.1205	-1,8543217E+002	-1,4935306E-001
30/08/2025 16:58:12.1205	-1,8535582E+002	-1,5445335E-001
30/08/2025 16:58:15.1205	-1,8531128E+002	-1,5874374E-001
30/08/2025 16:58:18.1205	-1,8536855E+002	-1,6337587E-001
30/08/2025 16:58:21.1205	-1,8536855E+002	-1,6738245E-001
30/08/2025 16:58:24.1205	-1,8534946E+002	-1,7141037E-001
30/08/2025 16:58:27.1205	-1,8537491E+002	-1,7556201E-001
30/08/2025 16:58:30.1205	-1,8533673E+002	-1,7918800E-001
30/08/2025 16:58:33.1205	-1,8540674E+002	-1,8333411E-001
30/08/2025 16:58:36.1205	-1,8532401E+002	-1,8670541E-001
30/08/2025 16:58:39.1205	-1,8529855E+002	-1,9048253E-001
30/08/2025 16:58:42.1205	-1,8534309E+002	-1,9395423E-001
30/08/2025 16:58:45.1205	-1,8529855E+002	-1,9723503E-001
30/08/2025 16:58:48.1205	-1,8536220E+002	-2,0099708E-001
30/08/2025 16:58:51.1205	-1,8533673E+002	-2,0412208E-001
30/08/2025 16:58:54.1205	-1,8530492E+002	-2,0796382E-001
30/08/2025 16:58:57.1205	-1,8534946E+002	-2,1102896E-001
30/08/2025 16:59:00.1205	-1,8540674E+002	-2,1446770E-001
30/08/2025 16:59:03.1205	-1,8536855E+002	-2,1796064E-001
30/08/2025 16:59:06.1205	-1,8536220E+002	-2,2116059E-001
30/08/2025 16:59:09.1205	-1,8539400E+002	-2,2523613E-001
30/08/2025 16:59:12.1205	-1,8533673E+002	-2,2853169E-001
30/08/2025 16:59:15.1205	-1,8536220E+002	-2,3276184E-001
30/08/2025 16:59:18.1205	-1,8533673E+002	-2,3658681E-001
30/08/2025 16:59:21.1205	-1,8533037E+002	-2,4089791E-001
30/08/2025 16:59:24.1205	-1,8538129E+002	-2,4610008E-001
30/08/2025 16:59:27.1205	-1,8535582E+002	-2,5115004E-001
30/08/2025 16:59:30.1205	-1,8532401E+002	-2,5834206E-001
30/08/2025 16:59:33.1205	-1,8538765E+002	-2,6578242E-001
30/08/2025 16:59:36.1205	-1,8533673E+002	-2,7669200E-001
30/08/2025 16:59:39.0207	2,1208440E+002	-1,7647959E-002
30/08/2025 16:59:42.0207	2,1212894E+002	1,5583320E-002
30/08/2025 16:59:45.0207	2,1211621E+002	3,6364879E-002
30/08/2025 16:59:48.0207	2,1213531E+002	5,1867932E-002
30/08/2025 16:59:51.0207	2,1212257E+002	6,5113768E-002
30/08/2025 16:59:54.0207	2,1205257E+002	7,6127075E-002
30/08/2025 16:59:57.0207	2,1214166E+002	8,6210445E-002
30/08/2025 17:00:00.0207	2,1209074E+002	9,5346838E-002
30/08/2025 17:00:03.0207	2,1210349E+002	1,0366813E-001
30/08/2025 17:00:06.0207	2,1209712E+002	1,1186769E-001
30/08/2025 17:00:09.0207	2,1214166E+002	1,1901656E-001
30/08/2025 17:00:12.0207	2,1218620E+002	1,2620802E-001
30/08/2025 17:00:15.0207	2,1216711E+002	1,3274282E-001
30/08/2025 17:00:18.0207	2,1212894E+002	1,3902594E-001
30/08/2025 17:00:21.0207	2,1216711E+002	1,4531438E-001
30/08/2025 17:00:24.0207	2,1212257E+002	1,5095042E-001
30/08/2025 17:00:27.0207	2,1212257E+002	1,5696698E-001
30/08/2025 17:00:30.0207	2,1204620E+002	1,6207446E-001
30/08/2025 17:00:33.0207	2,1219894E+002	1,6740602E-001
30/08/2025 17:00:36.0207	2,1205257E+002	1,7247839E-001
30/08/2025 17:00:39.0207	2,1214803E+002	1,7715392E-001
30/08/2025 17:00:42.0207	2,1214803E+002	1,8223061E-001
30/08/2025 17:00:45.0207	2,1210985E+002	1,8653843E-001
30/08/2025 17:00:48.0207	2,1212257E+002	1,9137579E-001
30/08/2025 17:00:51.0207	2,1216077E+002	1,9549574E-001
30/08/2025 17:00:54.0207	2,1211621E+002	1,9966283E-001
30/08/2025 17:00:57.0207	2,1216711E+002	2,0400372E-001
30/08/2025 17:01:00.0207	2,1211621E+002	2,0780398E-001
30/08/2025 17:01:03.0207	2,1212894E+002	2,1234669E-001
30/08/2025 17:01:06.0207	2,1212894E+002	2,1593870E-001
30/08/2025 17:01:09.0207	2,1209074E+002	2,2008933E-001
30/08/2025 17:01:12.0207	2,1212257E+002	2,2387812E-001
30/08/2025 17:01:15.0207	2,1212894E+002	2,2760773E-001
30/08/2025 17:01:18.0207	2,1214166E+002	2,3192990E-001
30/08/2025 17:01:21.0207	2,1218620E+002	2,3551609E-001
30/08/2025 17:01:24.0207	2,1214166E+002	2,4014905E-001
30/08/2025 17:01:27.0207	2,1212257E+002	2,4384923E-001
30/08/2025 17:01:30.0207	2,1208440E+002	2,4822710E-001
30/08/2025 17:01:33.0207	2,1211621E+002	2,5274268E-001
30/08/2025 17:01:36.0207	2,1217984E+002	2,5697359E-001
30/08/2025 17:01:38.9211	1,4341676E-001	1,2574263E-001
30/08/2025 17:01:41.9211	1,4341676E-001	1,0666543E-001
30/08/2025 17:01:44.9211	4,1595493E-002	9,5321476E-002
30/08/2025 17:01:47.9211	1,1796144E-001	8,7258406E-002
30/08/2025 17:01:50.9211	8,6142294E-002	8,0606438E-002
30/08/2025 17:01:53.9211	7,9778478E-002	7,5368240E-002
30/08/2025 17:01:56.9211	1,1796144E-001	7,0603333E-002
30/08/2025 17:01:59.9211	1,5614443E-001	6,6630103E-002
30/08/2025 17:02:02.9211	9,2506140E-002	6,2964506E-002
30/08/2025 17:02:05.9211	1,1796144E-001	5,9625898E-002
30/08/2025 17:02:08.9211	6,0686987E-002	5,6724600E-002
30/08/2025 17:02:11.9211	6,0686987E-002	5,3889841E-002
30/08/2025 17:02:14.9211	1,1796144E-001	5,1516190E-002
30/08/2025 17:02:17.9211	9,7763510E-003	4,9109001E-002
30/08/2025 17:02:20.9211	1,1159762E-001	4,6978876E-002
30/08/2025 17:02:23.9211	7,9778478E-002	4,4957239E-002
30/08/2025 17:02:26.9211	1,3705294E-001	4,3011386E-002
30/08/2025 17:02:29.9211	7,3414646E-002	4,1349471E-002
30/08/2025 17:02:32.9211	1,6250826E-001	3,9627928E-002
30/08/2025 17:02:35.9211	1,3705294E-001	3,8147312E-002
30/08/2025 17:02:38.9211	7,9778478E-002	3,6648434E-002
30/08/2025 17:02:41.9211	1,4341676E-001	3,5274047E-002
30/08/2025 17:02:44.9211	9,8869957E-002	3,4029391E-002
30/08/2025 17:02:47.9211	1,3068911E-001	3,2779042E-002
30/08/2025 17:02:50.9211	1,5614443E-001	3,1687640E-002
30/08/2025 17:02:53.9211	1,5614443E-001	3,0583326E-002
30/08/2025 17:02:56.9211	1,1796144E-001	2,9584672E-002
30/08/2025 17:02:59.9211	8,6142294E-002	2,8629834E-002
30/08/2025 17:03:02.9211	6,7050815E-002	2,7704943E-002
30/08/2025 17:03:05.9211	1,4978060E-001	2,6862489E-002
30/08/2025 17:03:08.9211	9,8869957E-002	2,6015641E-002
30/08/2025 17:03:11.9211	1,1159762E-001	2,5266623E-002
30/08/2025 17:03:14.9211	5,4323155E-002	2,4503356E-002
30/08/2025 17:03:17.9211	9,8869957E-002	2,3803767E-002
30/08/2025 17:03:20.9211	7,9778478E-002	2,3112850E-002
30/08/2025 17:03:23.9211	1,3705294E-001	2,2436947E-002
30/08/2025 17:03:26.9211	5,4323155E-002	2,1843668E-002
30/08/2025 17:03:29.9211	1,3068911E-001	2,1209363E-002
30/08/2025 17:03:32.9211	1,1796144E-001	2,0658523E-002
30/08/2025 17:03:35.9211	4,7959324E-002	2,0065438E-002
30/08/2025 17:03:38.8213	-2,1179117E+002	-8,1017874E-002
30/08/2025 17:03:41.8213	-2,1179755E+002	-9,7939849E-002
30/08/2025 17:03:44.8213	-2,1184209E+002	-1,1008970E-001
30/08/2025 17:03:47.8213	-2,1183574E+002	-1,2057058E-001
30/08/2025 17:03:50.8213	-2,1187392E+002	-1,2924965E-001
30/08/2025 17:03:53.8213	-2,1182935E+002	-1,3767886E-001
30/08/2025 17:03:56.8213	-2,1176572E+002	-1,4490218E-001
30/08/2025 17:03:59.8213	-2,1185481E+002	-1,5184955E-001
30/08/2025 17:04:02.8213	-2,1185481E+002	-1,5852517E-001
30/08/2025 17:04:05.8213	-2,1180389E+002	-1,6454753E-001
30/08/2025 17:04:08.8213	-2,1186754E+002	-1,7099801E-001
30/08/2025 17:04:11.8213	-2,1187392E+002	-1,7643084E-001
30/08/2025 17:04:14.8213	-2,1184845E+002	-1,8217835E-001
30/08/2025 17:04:17.8213	-2,1177846E+002	-1,8738350E-001
30/08/2025 17:04:20.8213	-2,1179117E+002	-1,9244464E-001
30/08/2025 17:04:23.8213	-2,1186118E+002	-1,9780615E-001
30/08/2025 17:04:26.8213	-2,1186118E+002	-2,0246381E-001
30/08/2025 17:04:29.8213	-2,1181664E+002	-2,0771533E-001
30/08/2025 17:04:32.8213	-2,1182935E+002	-2,1208262E-001
30/08/2025 17:04:35.8213	-2,1182300E+002	-2,1687645E-001
30/08/2025 17:04:38.8213	-2,1183574E+002	-2,2152130E-001
30/08/2025 17:04:41.8213	-2,1182935E+002	-2,2581089E-001
30/08/2025 17:04:44.8213	-2,1180389E+002	-2,3077287E-001
30/08/2025 17:04:47.8213	-2,1185481E+002	-2,3499312E-001
30/08/2025 17:04:50.8213	-2,1181664E+002	-2,4002634E-001
30/08/2025 17:04:53.8213	-2,1181027E+002	-2,4437860E-001
30/08/2025 17:04:56.8213	-2,1185481E+002	-2,4905495E-001
30/08/2025 17:04:59.8213	-2,1179755E+002	-2,5409687E-001
30/08/2025 17:05:02.8213	-2,1186754E+002	-2,5883579E-001
30/08/2025 17:05:05.8213	-2,1177846E+002	-2,6489958E-001
30/08/2025 17:05:08.8213	-2,1182935E+002	-2,7023759E-001
30/08/2025 17:05:11.8213	-2,1182935E+002	-2,7711129E-001
30/08/2025 17:05:14.8213	-2,1185481E+002	-2,8447998E-001
30/08/2025 17:05:17.8213	-2,1174026E+002	-2,9368138E-001
30/08/2025 17:05:20.8213	-2,1181664E+002	-3,0683815E-001
30/08/2025 17:05:23.8213	-2,1179755E+002	-3,2434508E-001
30/08/2025 17:05:26.8213	-2,1179755E+002	-3,5213310E-001
30/08/2025 17:05:29.8213	-2,1179117E+002	-3,8826394E-001
30/08/2025 17:05:32.8213	-2,1183574E+002	-4,9463084E-001
30/08/2025 17:05:35.8213	-2,1176572E+002	-5,7850444E-001
30/08/2025 17:05:38.7215	2,3863429E+002	-3,3709645E-002
30/08/2025 17:05:41.7215	2,3854518E+002	1,0727573E-002
30/08/2025 17:05:44.7215	2,3861520E+002	3,5421655E-002
30/08/2025 17:05:47.7215	2,3862791E+002	5,4279782E-002
30/08/2025 17:05:50.7215	2,3864700E+002	6,9154955E-002
30/08/2025 17:05:53.7215	2,3862791E+002	8,2162805E-002
30/08/2025 17:05:56.7215	2,3857063E+002	9,3777597E-002
30/08/2025 17:05:59.7215	2,3855792E+002	1,0416614E-001
30/08/2025 17:06:02.7215	2,3858337E+002	1,1426448E-001
30/08/2025 17:06:05.7215	2,3860246E+002	1,2305483E-001
30/08/2025 17:06:08.7215	2,3862155E+002	1,3178964E-001
30/08/2025 17:06:11.7215	2,3860246E+002	1,3983119E-001
30/08/2025 17:06:14.7215	2,3858974E+002	1,4748128E-001
30/08/2025 17:06:17.7215	2,3857063E+002	1,5523139E-001
30/08/2025 17:06:20.7215	2,3857701E+002	1,6217160E-001
30/08/2025 17:06:23.7215	2,3857701E+002	1,6950528E-001
30/08/2025 17:06:26.7215	2,3858974E+002	1,7588034E-001
30/08/2025 17:06:29.7215	2,3851337E+002	1,8240446E-001
30/08/2025 17:06:32.7215	2,3858974E+002	1,8880263E-001
30/08/2025 17:06:35.7215	2,3856429E+002	1,9465803E-001
30/08/2025 17:06:38.7215	2,3861520E+002	2,0104367E-001
30/08/2025 17:06:41.7215	2,3853246E+002	2,0652105E-001
30/08/2025 17:06:44.7215	2,3857701E+002	2,1251139E-001
30/08/2025 17:06:47.7215	2,3861520E+002	2,1790308E-001
30/08/2025 17:06:50.7215	2,3848155E+002	2,2317173E-001
30/08/2025 17:06:53.7215	2,3863429E+002	2,2880182E-001
30/08/2025 17:06:56.7215	2,3861520E+002	2,3378813E-001
30/08/2025 17:06:59.7215	2,3850700E+002	2,3966068E-001
30/08/2025 17:07:02.7215	2,3858974E+002	2,4448881E-001
30/08/2025 17:07:05.7215	2,3857063E+002	2,4988171E-001
30/08/2025 17:07:08.7215	2,3863429E+002	2,5525403E-001
30/08/2025 17:07:11.7215	2,3859610E+002	2,6040849E-001
30/08/2025 17:07:14.7215	2,3861520E+002	2,6664147E-001
30/08/2025 17:07:17.7215	2,3857701E+002	2,7200687E-001
30/08/2025 17:07:20.7215	2,3858974E+002	2,7879301E-001
30/08/2025 17:07:23.7215	2,3858974E+002	2,8480941E-001
30/08/2025 17:07:26.7215	2,3853883E+002	2,9155782E-001
30/08/2025 17:07:29.7215	2,3852611E+002	2,9920447E-001
30/08/2025 17:07:32.7215	2,3854518E+002	3,0651760E-001
30/08/2025 17:07:35.7215	2,3855156E+002	3,1656098E-001
30/08/2025 17:07:38.6219	1,3068911E-001	1,5522122E-001
30/08/2025 17:07:41.6219	4,7959324E-002	1,2947035E-001
30/08/2025 17:07:44.6219	1,0523378E-001	1,1554497E-001
30/08/2025 17:07:47.6219	9,8869957E-002	1,0522820E-001
30/08/2025 17:07:50.6219	5,4323155E-002	9,7451985E-002
30/08/2025 17:07:53.6219	1,0523378E-001	9,0686902E-002
30/08/2025 17:07:56.6219	1,1159762E-001	8,5065253E-002
30/08/2025 17:07:59.6219	9,8869957E-002	8,0080502E-002
30/08/2025 17:08:02.6219	1,2432528E-001	7,5506210E-002
30/08/2025 17:08:05.6219	1,6250826E-001	7,1628340E-002
30/08/2025 17:08:08.6219	1,2432528E-001	6,7836531E-002
30/08/2025 17:08:11.6219	9,8869957E-002	6,4664923E-002
30/08/2025 17:08:14.6219	1,7523590E-001	6,1519913E-002
30/08/2025 17:08:17.6219	1,6887209E-001	5,8661282E-002
30/08/2025 17:08:20.6219	1,3068911E-001	5,6040403E-002
30/08/2025 17:08:23.6219	6,0686987E-002	5,3484313E-002
30/08/2025 17:08:26.6219	1,1159762E-001	5,1329587E-002
30/08/2025 17:08:29.6219	1,1159762E-001	4,9108621E-002
30/08/2025 17:08:32.6219	1,1159762E-001	4,7162160E-002
30/08/2025 17:08:35.6219	1,0523378E-001	4,5257408E-002
30/08/2025 17:08:38.6219	9,2506140E-002	4,3454960E-002
30/08/2025 17:08:41.6219	1,6887209E-001	4,1891944E-002
30/08/2025 17:08:44.6219	1,6250826E-001	4,0274572E-002
30/08/2025 17:08:47.6219	4,7959324E-002	3,8883686E-002
30/08/2025 17:08:50.6219	2,2504006E-002	3,7473086E-002
30/08/2025 17:08:53.6219	3,5231672E-002	3,6208984E-002
30/08/2025 17:08:56.6219	1,3068911E-001	3,4998477E-002
30/08/2025 17:08:59.6219	9,2506140E-002	3,3835448E-002
30/08/2025 17:09:02.6219	1,1159762E-001	3,2795388E-002
30/08/2025 17:09:05.6219	9,2506140E-002	3,1735770E-002
30/08/2025 17:09:08.6219	9,8869957E-002	3,0812522E-002
30/08/2025 17:09:11.6219	8,6142294E-002	2,9855965E-002
30/08/2025 17:09:14.6219	-1,5678966E-002	2,8990515E-002
30/08/2025 17:09:17.6219	1,1796144E-001	2,8150579E-002
30/08/2025 17:09:20.6219	1,1796144E-001	2,7335782E-002
30/08/2025 17:09:23.6219	7,9778478E-002	2,6614763E-002
30/08/2025 17:09:26.6219	1,4978060E-001	2,5849778E-002
30/08/2025 17:09:29.6219	1,1796144E-001	2,5171811E-002
30/08/2025 17:09:32.6219	1,3068911E-001	2,4469893E-002
30/08/2025 17:09:35.6219	9,2506140E-002	2,3803690E-002
30/08/2025 17:09:38.5221	-2,3834106E+002	-8,6195186E-002
30/08/2025 17:09:41.5221	-2,3827744E+002	-1,0622559E-001
30/08/2025 17:09:44.5221	-2,3832198E+002	-1,2098497E-001
30/08/2025 17:09:47.5221	-2,3834743E+002	-1,3247974E-001
30/08/2025 17:09:50.5221	-2,3834743E+002	-1,4317140E-001
30/08/2025 17:09:53.5221	-2,3831561E+002	-1,5246120E-001
30/08/2025 17:09:56.5221	-2,3832198E+002	-1,6107446E-001
30/08/2025 17:09:59.5221	-2,3827106E+002	-1,6950218E-001
30/08/2025 17:10:02.5221	-2,3827106E+002	-1,7702998E-001
30/08/2025 17:10:05.5221	-2,3834106E+002	-1,8498884E-001
30/08/2025 17:10:08.5221	-2,3834743E+002	-1,9178708E-001
30/08/2025 17:10:11.5221	-2,3841109E+002	-1,9878954E-001
30/08/2025 17:10:14.5221	-2,3832198E+002	-2,0542504E-001
30/08/2025 17:10:17.5221	-2,3830923E+002	-2,1165556E-001
30/08/2025 17:10:20.5221	-2,3836652E+002	-2,1844178E-001
30/08/2025 17:10:23.5221	-2,3836652E+002	-2,2427787E-001
30/08/2025 17:10:26.5221	-2,3833472E+002	-2,3073050E-001
30/08/2025 17:10:29.5221	-2,3828378E+002	-2,3638339E-001
30/08/2025 17:10:32.5221	-2,3831561E+002	-2,4225029E-001
30/08/2025 17:10:35.5221	-2,3829016E+002	-2,4835689E-001
30/08/2025 17:10:38.5221	-2,3830289E+002	-2,5387469E-001
30/08/2025 17:10:41.5221	-2,3829652E+002	-2,6031220E-001
30/08/2025 17:10:44.5221	-2,3834743E+002	-2,6589268E-001
30/08/2025 17:10:47.5221	-2,3836017E+002	-2,7230150E-001
30/08/2025 17:10:50.5221	-2,3824561E+002	-2,7853626E-001
30/08/2025 17:10:53.5221	-2,3833472E+002	-2,8497323E-001
30/08/2025 17:10:56.5221	-2,3829652E+002	-2,9254290E-001
30/08/2025 17:10:59.5221	-2,3832198E+002	-2,9995841E-001
30/08/2025 17:11:02.5221	-2,3828378E+002	-3,0971184E-001
30/08/2025 17:11:05.5221	-2,3834106E+002	-3,1989560E-001
30/08/2025 17:11:08.5221	-2,3833472E+002	-3,3435962E-001
30/08/2025 17:11:11.5221	-2,3838560E+002	-3,5519207E-001
30/08/2025 17:11:14.5221	-2,3827106E+002	-3,8502526E-001
30/08/2025 17:11:17.5221	-2,3826471E+002	-4,2655134E-001
30/08/2025 17:11:20.5221	-2,3833472E+002	-4,8190337E-001
30/08/2025 17:11:23.5221	-2,3829016E+002	-6,8733597E-001
30/08/2025 17:11:26.1941	2,6508234E+002	-1,1241809E-001
30/08/2025 17:11:29.1941	2,6505692E+002	-1,8952680E-003
30/08/2025 17:11:32.1941	2,6503784E+002	3,2844778E-002
30/08/2025 17:11:35.1941	2,6508871E+002	5,5292606E-002
30/08/2025 17:11:38.1941	2,6507599E+002	7,3428117E-002
30/08/2025 17:11:41.1941	2,6504419E+002	8,8485271E-002
30/08/2025 17:11:44.1941	2,6508234E+002	1,0179471E-001
30/08/2025 17:11:47.1941	2,6508871E+002	1,1421421E-001
30/08/2025 17:11:50.1941	2,6512054E+002	1,2512402E-001
30/08/2025 17:11:53.1941	2,6506326E+002	1,3592535E-001
30/08/2025 17:11:56.1941	2,6505054E+002	1,4559262E-001
30/08/2025 17:11:59.1941	2,6510147E+002	1,5506700E-001
30/08/2025 17:12:02.1941	2,6506961E+002	1,6431987E-001
30/08/2025 17:12:05.1941	2,6508871E+002	1,7279878E-001
30/08/2025 17:12:08.1941	2,6512054E+002	1,8177305E-001
30/08/2025 17:12:11.1941	2,6505692E+002	1,8958087E-001
30/08/2025 17:12:14.1941	2,6512054E+002	1,9783406E-001
30/08/2025 17:12:17.1941	2,6508234E+002	2,0549534E-001
30/08/2025 17:12:20.1941	2,6508871E+002	2,1283482E-001
30/08/2025 17:12:23.1941	2,6513327E+002	2,2055773E-001
30/08/2025 17:12:26.1941	2,6509509E+002	2,2746834E-001
30/08/2025 17:12:29.1941	2,6497418E+002	2,3517661E-001
30/08/2025 17:12:32.1941	2,6507599E+002	2,4179158E-001
30/08/2025 17:12:35.1941	2,6510147E+002	2,4872741E-001
30/08/2025 17:12:38.1941	2,6513962E+002	2,5564593E-001
30/08/2025 17:12:41.1941	2,6511420E+002	2,6216155E-001
30/08/2025 17:12:44.1941	2,6508871E+002	2,6965302E-001
30/08/2025 17:12:47.1941	2,6510782E+002	2,7624136E-001
30/08/2025 17:12:50.1941	2,6513962E+002	2,8399062E-001
30/08/2025 17:12:53.1941	2,6510782E+002	2,9133266E-001
30/08/2025 17:12:56.1941	2,6510782E+002	2,9966408E-001
30/08/2025 17:12:59.1941	2,6509509E+002	3,0970299E-001
30/08/2025 17:13:02.1941	2,6513327E+002	3,2005408E-001
30/08/2025 17:13:05.1941	2,6503146E+002	3,3299041E-001
30/08/2025 17:13:08.1941	2,6507599E+002	3,4523422E-001
30/08/2025 17:13:11.1941	2,6507599E+002	3,5986739E-001
30/08/2025 17:13:14.1941	2,6506961E+002	3,7596583E-001
30/08/2025 17:13:17.1941	2,6505692E+002	3,9564127E-001
30/08/2025 17:13:20.1941	2,6508871E+002	4,2714176E-001
30/08/2025 17:13:23.1941	2,6513962E+002	4,6584031E-001
30/08/2025 17:13:26.0943	1,1796144E-001	2,9291022E-001
30/08/2025 17:13:29.0943	1,1796144E-001	1,8602329E-001
30/08/2025 17:13:32.0943	1,0523378E-001	1,5966342E-001
30/08/2025 17:13:35.0943	9,8869957E-002	1,4352632E-001
30/08/2025 17:13:38.0943	1,1796144E-001	1,3107790E-001
30/08/2025 17:13:41.0943	9,2506140E-002	1,2144979E-001
30/08/2025 17:13:44.0943	1,3705294E-001	1,1314267E-001
30/08/2025 17:13:47.0943	9,2506140E-002	1,0597898E-001
30/08/2025 17:13:50.0943	7,9778478E-002	9,9824145E-002
30/08/2025 17:13:53.0943	1,1159762E-001	9,4058327E-002
30/08/2025 17:13:56.0943	1,1159762E-001	8,9206360E-002
30/08/2025 17:13:59.0943	1,2432528E-001	8,4468231E-002
30/08/2025 17:14:02.0943	7,9778478E-002	8,0329113E-002
30/08/2025 17:14:05.0943	4,1595493E-002	7,6389238E-002
30/08/2025 17:14:08.0943	6,0686987E-002	7,2715841E-002
30/08/2025 17:14:11.0943	7,3414646E-002	6,9497988E-002
30/08/2025 17:14:14.0943	1,0523378E-001	6,6262051E-002
30/08/2025 17:14:17.0943	7,9778478E-002	6,3498922E-002
30/08/2025 17:14:20.0943	9,8869957E-002	6,0699042E-002
30/08/2025 17:14:23.0943	1,5614443E-001	5,8203917E-002
30/08/2025 17:14:26.0943	6,7050815E-002	5,5861287E-002
30/08/2025 17:14:29.0943	9,8869957E-002	5,3557847E-002
30/08/2025 17:14:32.0943	7,9778478E-002	5,1589686E-002
30/08/2025 17:14:35.0943	9,2506140E-002	4,9568389E-002
30/08/2025 17:14:38.0943	1,2432528E-001	4,7841996E-002
30/08/2025 17:14:41.0943	8,6142294E-002	4,6107393E-002
30/08/2025 17:14:44.0943	1,2432528E-001	4,4475883E-002
30/08/2025 17:14:47.0943	1,0523378E-001	4,3020781E-002
30/08/2025 17:14:50.0943	1,1796144E-001	4,1544218E-002
30/08/2025 17:14:53.0943	9,8869957E-002	4,0298179E-002
30/08/2025 17:14:56.0943	1,2432528E-001	3,8995381E-002
30/08/2025 17:14:59.0943	1,3068911E-001	3,7825018E-002
30/08/2025 17:15:02.0943	1,2432528E-001	3,6689002E-002
30/08/2025 17:15:05.0943	4,7959324E-002	3,5581592E-002
30/08/2025 17:15:08.0943	6,0686987E-002	3,4627140E-002
30/08/2025 17:15:11.0943	1,1796144E-001	3,3630509E-002
30/08/2025 17:15:14.0943	9,7763510E-003	3,2745115E-002
30/08/2025 17:15:17.0943	1,3068911E-001	3,1841431E-002
30/08/2025 17:15:20.0943	9,2506140E-002	3,0986255E-002
30/08/2025 17:15:23.0943	1,3068911E-001	3,0203352E-002
30/08/2025 17:15:25.9945	1,0523378E-001	2,9460292E-002
30/08/2025 17:15:28.9945	-2,6475732E+002	-1,0330082E-001
30/08/2025 17:15:31.9945	-2,6479550E+002	-1,2181100E-001
30/08/2025 17:15:34.9945	-2,6485913E+002	-1,3688660E-001
30/08/2025 17:15:37.9945	-2,6478278E+002	-1,4904672E-001
30/08/2025 17:15:40.9945	-2,6480823E+002	-1,6048473E-001
30/08/2025 17:15:43.9945	-2,6475732E+002	-1,7085463E-001
30/08/2025 17:15:46.9945	-2,6478278E+002	-1,8043521E-001
30/08/2025 17:15:49.9945	-2,6471277E+002	-1,9018444E-001
30/08/2025 17:15:52.9945	-2,6477643E+002	-1,9862241E-001
30/08/2025 17:15:55.9945	-2,6476367E+002	-2,0748529E-001
30/08/2025 17:15:58.9945	-2,6480823E+002	-2,1545935E-001
30/08/2025 17:16:01.9945	-2,6484006E+002	-2,2339311E-001
30/08/2025 17:16:04.9945	-2,6479550E+002	-2,3147279E-001
30/08/2025 17:16:07.9945	-2,6482733E+002	-2,3868398E-001
30/08/2025 17:16:10.9945	-2,6477005E+002	-2,4675645E-001
30/08/2025 17:16:13.9945	-2,6479550E+002	-2,5363120E-001
30/08/2025 17:16:16.9945	-2,6470004E+002	-2,6117304E-001
30/08/2025 17:16:19.9945	-2,6478278E+002	-2,6842308E-001
30/08/2025 17:16:22.9945	-2,6482733E+002	-2,7532661E-001
30/08/2025 17:16:25.9945	-2,6482095E+002	-2,8321663E-001
30/08/2025 17:16:28.9945	-2,6480823E+002	-2,9028046E-001
30/08/2025 17:16:31.9945	-2,6475732E+002	-2,9888576E-001
30/08/2025 17:16:34.9945	-2,6480823E+002	-3,0680162E-001
30/08/2025 17:16:37.9945	-2,6477005E+002	-3,1587875E-001
30/08/2025 17:16:40.9945	-2,6478915E+002	-3,2639489E-001
30/08/2025 17:16:43.9945	-2,6473825E+002	-3,3765209E-001
30/08/2025 17:16:46.9945	-2,6479550E+002	-3,5322148E-001
30/08/2025 17:16:49.9945	-2,6478278E+002	-3,7168068E-001
30/08/2025 17:16:52.9945	-2,6474460E+002	-4,0188229E-001
30/08/2025 17:16:55.9945	-2,6476367E+002	-4,4288158E-001
30/08/2025 17:16:58.9945	-2,6482733E+002	-4,9148914E-001
30/08/2025 17:17:01.9945	-2,6477643E+002	-5,6191730E-001
30/08/2025 17:17:04.9945	-2,6479550E+002	-6,5871805E-001
30/08/2025 17:17:07.7315	2,9160678E+002	-1,7892243E-002
30/08/2025 17:17:10.7315	2,9155588E+002	3,0373111E-002
30/08/2025 17:17:13.7315	2,9160043E+002	5,8499046E-002
30/08/2025 17:17:16.7315	2,9163226E+002	7,9656869E-002
30/08/2025 17:17:19.7315	2,9149860E+002	9,6803732E-002
30/08/2025 17:17:22.7315	2,9161316E+002	1,1234759E-001
30/08/2025 17:17:25.7315	2,9154315E+002	1,2576407E-001
30/08/2025 17:17:28.7315	2,9158136E+002	1,3859890E-001
30/08/2025 17:17:31.7315	2,9158136E+002	1,5053539E-001
30/08/2025 17:17:34.7315	2,9153680E+002	1,6174690E-001
30/08/2025 17:17:37.7315	2,9161951E+002	1,7303909E-001
30/08/2025 17:17:40.7315	2,9154950E+002	1,8328011E-001
30/08/2025 17:17:43.7315	2,9149860E+002	1,9383140E-001
30/08/2025 17:17:46.7315	2,9154950E+002	2,0356676E-001
30/08/2025 17:17:49.7315	2,9156860E+002	2,1315761E-001
30/08/2025 17:17:52.7315	2,9153043E+002	2,2287351E-001
30/08/2025 17:17:55.7315	2,9161316E+002	2,3186219E-001
30/08/2025 17:17:58.7315	2,9153043E+002	2,4159786E-001
30/08/2025 17:18:01.7315	2,9160043E+002	2,5008354E-001
30/08/2025 17:18:04.7315	2,9159409E+002	2,5904974E-001
30/08/2025 17:18:07.7315	2,9163226E+002	2,6775467E-001
30/08/2025 17:18:10.7315	2,9152408E+002	2,7615812E-001
30/08/2025 17:18:13.7315	2,9158771E+002	2,8540391E-001
30/08/2025 17:18:16.7315	2,9161316E+002	2,9371616E-001
30/08/2025 17:18:19.7315	2,9163226E+002	3,0330744E-001
30/08/2025 17:18:22.7315	2,9160043E+002	3,1236333E-001
30/08/2025 17:18:25.7315	2,9158136E+002	3,2285103E-001
30/08/2025 17:18:28.7315	2,9161316E+002	3,3614567E-001
30/08/2025 17:18:31.7315	2,9160043E+002	3,5327137E-001
30/08/2025 17:18:34.7315	2,9154950E+002	3,7679666E-001
30/08/2025 17:18:37.7315	2,9154950E+002	4,0057433E-001
30/08/2025 17:18:40.7315	2,9159409E+002	4,2713964E-001
30/08/2025 17:18:43.7315	2,9161316E+002	4,5302117E-001
30/08/2025 17:18:46.7315	2,9156223E+002	4,8847142E-001
30/08/2025 17:18:49.7315	2,9152408E+002	5,4455429E-001
30/08/2025 17:18:52.7315	2,9156223E+002	6,0378146E-001
30/08/2025 17:18:55.7315	2,9154950E+002	6,9677639E-001
30/08/2025 17:18:58.6005	-2,9132629E+002	8,5722134E-002
30/08/2025 17:19:01.6005	-2,9133902E+002	-5,0845942E-003
30/08/2025 17:19:04.6005	-2,9131360E+002	-3,9504532E-002
30/08/2025 17:19:07.6005	-2,9128177E+002	-6,2831901E-002
30/08/2025 17:19:10.6005	-2,9133267E+002	-8,1748024E-002
30/08/2025 17:19:13.6005	-2,9126904E+002	-9,7152673E-002
30/08/2025 17:19:16.6005	-2,9128812E+002	-1,1137761E-001
30/08/2025 17:19:19.6005	-2,9127539E+002	-1,2400748E-001
30/08/2025 17:19:22.6005	-2,9125632E+002	-1,3589911E-001
30/08/2025 17:19:25.6005	-2,9130722E+002	-1,4746045E-001
30/08/2025 17:19:28.6005	-2,9128812E+002	-1,5811789E-001
30/08/2025 17:19:31.6005	-2,9135812E+002	-1,6902606E-001
30/08/2025 17:19:34.6005	-2,9128812E+002	-1,7890410E-001
30/08/2025 17:19:37.6005	-2,9133267E+002	-1,8903141E-001
30/08/2025 17:19:40.6005	-2,9128812E+002	-1,9884625E-001
30/08/2025 17:19:43.6005	-2,9126266E+002	-2,0827301E-001
30/08/2025 17:19:46.6005	-2,9133267E+002	-2,1815331E-001
30/08/2025 17:19:49.6005	-2,9137723E+002	-2,2720139E-001
30/08/2025 17:19:52.6005	-2,9135178E+002	-2,3685206E-001
30/08/2025 17:19:55.6005	-2,9137723E+002	-2,4573666E-001
30/08/2025 17:19:58.6005	-2,9138358E+002	-2,5472400E-001
30/08/2025 17:20:01.6005	-2,9132629E+002	-2,6390791E-001
30/08/2025 17:20:04.6005	-2,9135178E+002	-2,7251995E-001
30/08/2025 17:20:07.6005	-2,9138358E+002	-2,8214377E-001
30/08/2025 17:20:10.6005	-2,9132629E+002	-2,9064283E-001
30/08/2025 17:20:13.6005	-2,9132629E+002	-3,0007994E-001
30/08/2025 17:20:16.6005	-2,9133902E+002	-3,0956975E-001
30/08/2025 17:20:19.6005	-2,9142175E+002	-3,1966868E-001
30/08/2025 17:20:22.6005	-2,9138358E+002	-3,3273050E-001
30/08/2025 17:20:25.6005	-2,9140268E+002	-3,4891665E-001
30/08/2025 17:20:28.6005	-2,9126266E+002	-3,7158701E-001
30/08/2025 17:20:31.6005	-2,9134540E+002	-3,9489320E-001
30/08/2025 17:20:34.6005	-2,9133902E+002	-4,1950786E-001
30/08/2025 17:20:37.6005	-2,9131995E+002	-4,4489804E-001
30/08/2025 17:20:40.6005	-2,9135812E+002	-4,7204000E-001
30/08/2025 17:20:43.6005	-2,9133267E+002	-5,1906574E-001
30/08/2025 17:20:46.6005	-2,9131360E+002	-5,7408464E-001
30/08/2025 17:20:49.6005	-2,9141541E+002	-6,5039498E-001
30/08/2025 17:20:52.6005	-2,9136447E+002	-7,2642827E-001
30/08/2025 17:20:55.2515	3,1806760E+002	-4,9790319E-002
30/08/2025 17:20:58.2515	3,1815671E+002	2,5677994E-002
30/08/2025 17:21:01.2515	3,1814395E+002	5,8816943E-002
30/08/2025 17:21:04.2515	3,1825851E+002	8,2798488E-002
30/08/2025 17:21:07.2515	3,1816940E+002	1,0206188E-001
30/08/2025 17:21:10.2515	3,1812488E+002	1,1855870E-001
30/08/2025 17:21:13.2515	3,1808035E+002	1,3407065E-001
30/08/2025 17:21:16.2515	3,1818216E+002	1,4765953E-001
30/08/2025 17:21:19.2515	3,1817581E+002	1,6117139E-001
30/08/2025 17:21:22.2515	3,1807397E+002	1,7360120E-001
30/08/2025 17:21:25.2515	3,1815033E+002	1,8565533E-001
30/08/2025 17:21:28.2515	3,1821399E+002	1,9771369E-001
30/08/2025 17:21:31.2515	3,1816940E+002	2,0900103E-001
30/08/2025 17:21:34.2515	3,1813126E+002	2,2095959E-001
30/08/2025 17:21:37.2515	3,1818216E+002	2,3166522E-001
30/08/2025 17:21:40.2515	3,1816302E+002	2,4279130E-001
30/08/2025 17:21:43.2515	3,1821399E+002	2,5356144E-001
30/08/2025 17:21:46.2515	3,1816940E+002	2,6397207E-001
30/08/2025 17:21:49.2515	3,1822668E+002	2,7508509E-001
30/08/2025 17:21:52.2515	3,1821399E+002	2,8516582E-001
30/08/2025 17:21:55.2515	3,1813760E+002	2,9614303E-001
30/08/2025 17:21:58.2515	3,1818216E+002	3,0619788E-001
30/08/2025 17:22:01.2515	3,1815671E+002	3,1668177E-001
30/08/2025 17:22:04.2515	3,1818216E+002	3,2778537E-001
30/08/2025 17:22:07.2515	3,1811853E+002	3,3857810E-001
30/08/2025 17:22:10.2515	3,1815671E+002	3,5153279E-001
30/08/2025 17:22:13.2515	3,1821399E+002	3,6538216E-001
30/08/2025 17:22:16.2515	3,1808667E+002	3,8872257E-001
30/08/2025 17:22:19.2515	3,1816302E+002	4,2383221E-001
30/08/2025 17:22:22.2515	3,1812488E+002	4,6562800E-001
30/08/2025 17:22:25.2515	3,1816940E+002	5,0671494E-001
30/08/2025 17:22:28.2515	3,1819489E+002	5,5400383E-001
30/08/2025 17:22:31.2515	3,1815033E+002	6,3998634E-001
30/08/2025 17:22:34.2515	3,1812488E+002	7,2438890E-001
30/08/2025 17:22:37.0657	-3,1786346E+002	3,7292596E-002
30/08/2025 17:22:40.0657	-3,1783801E+002	-2,8577905E-002
30/08/2025 17:22:43.0657	-3,1785074E+002	-6,0266528E-002
30/08/2025 17:22:46.0657	-3,1790161E+002	-8,3492562E-002
30/08/2025 17:22:49.0657	-3,1787619E+002	-1,0161657E-001
30/08/2025 17:22:52.0657	-3,1786346E+002	-1,1790837E-001
30/08/2025 17:22:55.0657	-3,1787619E+002	-1,3238786E-001
30/08/2025 17:22:58.0657	-3,1788892E+002	-1,4579633E-001
30/08/2025 17:23:01.0657	-3,1786984E+002	-1,5902628E-001
30/08/2025 17:23:04.0657	-3,1785074E+002	-1,7092626E-001
30/08/2025 17:23:07.0657	-3,1779984E+002	-1,8320122E-001
30/08/2025 17:23:10.0657	-3,1791440E+002	-1,9450700E-001
30/08/2025 17:23:13.0657	-3,1784433E+002	-2,0592064E-001
30/08/2025 17:23:16.0657	-3,1786984E+002	-2,1736747E-001
30/08/2025 17:23:19.0657	-3,1791440E+002	-2,2812214E-001
30/08/2025 17:23:22.0657	-3,1792709E+002	-2,3970978E-001
30/08/2025 17:23:25.0657	-3,1779984E+002	-2,5008395E-001
30/08/2025 17:23:28.0657	-3,1788254E+002	-2,6117548E-001
30/08/2025 17:23:31.0657	-3,1788892E+002	-2,7186811E-001
30/08/2025 17:23:34.0657	-3,1781894E+002	-2,8221869E-001
30/08/2025 17:23:37.0657	-3,1790802E+002	-2,9340863E-001
30/08/2025 17:23:40.0657	-3,1783801E+002	-3,0368936E-001
30/08/2025 17:23:43.0657	-3,1783163E+002	-3,1522849E-001
30/08/2025 17:23:46.0657	-3,1788892E+002	-3,2587871E-001
30/08/2025 17:23:49.0657	-3,1789529E+002	-3,3740085E-001
30/08/2025 17:23:52.0657	-3,1788254E+002	-3,5027841E-001
30/08/2025 17:23:55.0657	-3,1790802E+002	-3,6503440E-001
30/08/2025 17:23:58.0657	-3,1791440E+002	-3,9146656E-001
30/08/2025 17:24:01.0657	-3,1782526E+002	-4,2768818E-001
30/08/2025 17:24:04.0657	-3,1788254E+002	-4,7162902E-001
30/08/2025 17:24:07.0657	-3,1785712E+002	-5,0762737E-001
30/08/2025 17:24:10.0657	-3,1785712E+002	-5,5301929E-001
30/08/2025 17:24:13.0657	-3,1793982E+002	-6,2556899E-001
30/08/2025 17:24:16.0657	-3,1797800E+002	-7,0884860E-001
30/08/2025 17:24:18.6051	-1,5568320E-001	-6,3823253E-001