File: data/phase_2a/Sergey/2/3.3/02 polarisation/SN50_C6aD1E1_lr 0,1MFeCN6_in_1M_KCl_3306mL_symmetric_balanced_4_point_PEIS_10mHz_200kHz_10mV_04_CA_C16.txt
time/s	<I>/mA	Ewe/V
30/08/2025 17:24:19.7033	4,363171822499107E+002	-2,0544075E-003
30/08/2025 17:24:24.7033	2,170608775634764E+002	-2,1117069E-003
30/08/2025 17:24:29.7033	1,592157478515624E+002	-2,1690065E-003
30/08/2025 17:24:34.7033	1,258813667434692E+002	-2,1690065E-003
30/08/2025 17:24:39.7033	1,028831568038939E+002	-2,1499067E-003
30/08/2025 17:24:44.7033	8,583536465148927E+001	-2,1308069E-003
30/08/2025 17:24:49.7033	7,257619653930658E+001	-2,2645055E-003
30/08/2025 17:24:54.7033	6,193187203979494E+001	-2,1117069E-003
30/08/2025 17:24:59.7033	5,319358999176029E+001	-2,1499067E-003
30/08/2025 17:25:04.7033	4,590665695877078E+001	-2,1117069E-003
30/08/2025 17:25:09.7033	3,930450954895014E+001	-2,2645055E-003
30/08/2025 17:25:14.7033	3,416624899368281E+001	-2,0735073E-003
30/08/2025 17:25:19.7033	2,986874726448059E+001	-2,1881063E-003
30/08/2025 17:25:24.7033	2,629622044067384E+001	-2,1499067E-003
30/08/2025 17:25:29.7033	2,329046668930050E+001	-2,2263059E-003
30/08/2025 17:25:34.7033	2,082723683395380E+001	-1,9780083E-003
30/08/2025 17:25:39.7033	1,877534249763488E+001	-2,1499067E-003
30/08/2025 17:25:44.7033	1,706605170860290E+001	-2,0926071E-003
30/08/2025 17:25:49.7033	1,563322590408322E+001	-2,1690065E-003
30/08/2025 17:25:54.7033	1,442188188858032E+001	-2,0926071E-003
30/08/2025 17:25:59.7033	1,338157401905056E+001	-2,0926071E-003
30/08/2025 17:26:04.7033	1,247159958763122E+001	-2,0162079E-003
30/08/2025 17:26:09.7033	1,165134926109313E+001	-2,1690065E-003
30/08/2025 17:26:14.7033	1,091403742580414E+001	-2,2072061E-003
30/08/2025 17:26:19.7033	1,023370704860687E+001	-2,0735073E-003
30/08/2025 17:26:24.7033	9,589567329978934E+000	-2,0735073E-003
30/08/2025 17:26:29.7033	9,007765978431692E+000	-2,1881063E-003
30/08/2025 17:26:34.7033	8,445250167655928E+000	-2,1308069E-003
30/08/2025 17:26:39.7033	7,902065472793566E+000	-2,1881063E-003
30/08/2025 17:26:44.7033	7,393017154312105E+000	-2,1499067E-003
30/08/2025 17:26:49.7033	6,919687389373763E+000	-2,1308069E-003
30/08/2025 17:26:54.7033	6,461761279773711E+000	-2,0735073E-003
30/08/2025 17:26:59.7033	6,039857822990417E+000	-2,1308069E-003
30/08/2025 17:27:04.7033	5,636000542163849E+000	-2,0735073E-003
30/08/2025 17:27:09.7033	5,239802038192735E+000	-2,2072061E-003
30/08/2025 17:27:14.7033	4,874475091934201E+000	-2,1881063E-003
30/08/2025 17:27:19.7033	4,438191393819636E+000	-2,2072061E-003
30/08/2025 17:27:24.7033	4,138742985343931E+000	-2,1690065E-003
30/08/2025 17:27:29.7033	3,829875511407849E+000	-2,2072061E-003
30/08/2025 17:27:34.7033	3,550549895191182E+000	-2,0162079E-003
30/08/2025 17:27:39.7033	3,269990663146972E+000	-2,0926071E-003
30/08/2025 17:27:44.7033	3,001393581676481E+000	-2,1690065E-003
30/08/2025 17:27:49.7033	2,759619262552260E+000	-2,1881063E-003
30/08/2025 17:27:54.7033	2,529549758052823E+000	-2,1117069E-003
30/08/2025 17:27:59.7033	2,308353264760967E+000	-2,1308069E-003
30/08/2025 17:28:04.7033	2,107125071191787E+000	-2,1308069E-003
30/08/2025 17:28:09.7033	1,917744315338133E+000	-2,0162079E-003
30/08/2025 17:28:14.7033	1,732643781161308E+000	-2,1881063E-003
30/08/2025 17:28:19.7033	1,561281825900076E+000	-2,1499067E-003
30/08/2025 17:28:24.7033	1,404439211559296E+000	-2,2454057E-003
30/08/2025 17:28:29.7033	1,278108947896957E+000	-2,1690065E-003
30/08/2025 17:28:34.7033	1,141286490011215E+000	-2,1499067E-003
30/08/2025 17:28:39.7033	1,009658465301990E+000	-2,1881063E-003
30/08/2025 17:28:44.7033	8,939454674363132E-001	-2,1690065E-003
30/08/2025 17:28:49.7033	7,919601398348792E-001	-2,1308069E-003
30/08/2025 17:28:54.7033	6,917970376968370E-001	-2,1308069E-003
30/08/2025 17:28:59.7033	6,135679456830023E-001	-2,1308069E-003
30/08/2025 17:29:04.7033	5,396104687571519E-001	-2,0735073E-003
30/08/2025 17:29:09.7251	3,763064444065094E-001	-2,2263059E-003
30/08/2025 17:29:14.7251	3,983794329583645E-001	-2,2072061E-003
30/08/2025 17:29:19.7251	3,502273596286771E-001	-2,0162079E-003
30/08/2025 17:29:24.7251	2,998050358176227E-001	-2,0735073E-003
30/08/2025 17:29:29.7251	2,613666069954633E-001	-2,1308069E-003
30/08/2025 17:29:34.7251	2,242482486367221E-001	-2,1690065E-003
30/08/2025 17:29:39.7251	1,886406716316937E-001	-2,1308069E-003
30/08/2025 17:29:44.7251	1,678909316241741E-001	-1,9971081E-003
30/08/2025 17:29:49.7251	1,427499377459287E-001	-2,2263059E-003
30/08/2025 17:29:54.7251	1,310727159529923E-001	-2,1499067E-003
30/08/2025 17:29:59.7251	1,162493035048247E-001	-2,0926071E-003
30/08/2025 17:30:04.7251	1,182375580355524E-001	-2,2263059E-003
30/08/2025 17:30:09.7251	1,080340133860707E-001	-2,1117069E-003
30/08/2025 17:30:14.7251	1,045127934411167E-001	-2,0735073E-003
30/08/2025 17:30:19.7251	9,582978274673226E-002	-2,1117069E-003
30/08/2025 17:30:24.7251	9,584864699244489E-002	-2,0735073E-003
30/08/2025 17:30:29.7251	9,651036297380911E-002	-2,0162079E-003
30/08/2025 17:30:34.7251	1,022752901971340E-001	-2,1308069E-003
30/08/2025 17:30:39.7251	1,029095260486007E-001	-2,0735073E-003
30/08/2025 17:30:44.7251	1,069216243803499E-001	-2,1117069E-003
30/08/2025 17:30:49.7251	1,236912295579911E-001	-2,1117069E-003
30/08/2025 17:30:54.7251	1,362332659751178E-001	-2,1308069E-003
30/08/2025 17:30:59.7251	1,461975990146398E-001	-2,1117069E-003
30/08/2025 17:31:04.7251	1,358301457822322E-001	-2,0544075E-003
30/08/2025 17:31:09.7251	1,458136269599200E-001	-2,2263059E-003
30/08/2025 17:31:14.7251	1,520541416257619E-001	-2,1117069E-003
30/08/2025 17:31:19.7251	1,596464070439338E-001	-2,1308069E-003
30/08/2025 17:31:24.7251	1,703246275246140E-001	-2,1499067E-003
30/08/2025 17:31:29.7251	1,904041056275365E-001	-2,2072061E-003
30/08/2025 17:31:34.7251	1,888473364919423E-001	-2,1308069E-003
30/08/2025 17:31:39.7251	1,949170642465352E-001	-2,0353077E-003
30/08/2025 17:31:44.7251	2,123396878957746E-001	-2,1499067E-003
30/08/2025 17:31:49.7251	2,072536049962044E-001	-2,1881063E-003
30/08/2025 17:31:54.7251	2,189153099536885E-001	-2,1690065E-003
30/08/2025 17:31:59.7251	2,298514066278934E-001	-2,1308069E-003
30/08/2025 17:32:04.7251	2,352133457571264E-001	-2,1117069E-003
30/08/2025 17:32:09.7251	2,400070014804601E-001	-2,0926071E-003
30/08/2025 17:32:14.7251	2,452769523978233E-001	-2,1690065E-003
30/08/2025 17:32:19.7251	2,568151981234548E-001	-2,0735073E-003
30/08/2025 17:32:24.7251	2,658792174518105E-001	-2,2072061E-003
30/08/2025 17:32:29.7251	2,755902368903160E-001	-2,0735073E-003
30/08/2025 17:32:34.7251	2,765680047273626E-001	-2,1499067E-003
30/08/2025 17:32:39.7251	2,782909335613248E-001	-2,1881063E-003
30/08/2025 17:32:44.7251	2,853887593209743E-001	-2,2454057E-003
30/08/2025 17:32:49.7251	2,963029037296767E-001	-2,2836053E-003
30/08/2025 17:32:54.7251	3,057351737141607E-001	-2,1499067E-003
30/08/2025 17:32:59.7251	3,073115740001198E-001	-2,2072061E-003
30/08/2025 17:33:04.7251	3,041610438168048E-001	-2,1308069E-003
30/08/2025 17:33:09.7251	3,053499814689156E-001	-2,1117069E-003
30/08/2025 17:33:14.7251	3,085990829646588E-001	-2,1308069E-003
30/08/2025 17:33:19.7251	3,107065494358539E-001	-2,1117069E-003
30/08/2025 17:33:24.7251	3,179903927505016E-001	-2,1308069E-003
30/08/2025 17:33:29.7251	3,185552437067027E-001	-2,0926071E-003
30/08/2025 17:33:34.7251	3,191427669167508E-001	-2,1117069E-003
30/08/2025 17:33:39.7251	3,234722910344601E-001	-2,2263059E-003
30/08/2025 17:33:44.7251	3,363196626305576E-001	-2,0353077E-003
30/08/2025 17:33:49.7251	3,271522273123262E-001	-2,1499067E-003
30/08/2025 17:33:54.7251	3,253551328659059E-001	-2,0735073E-003
30/08/2025 17:33:59.7251	3,276110087156292E-001	-2,0735073E-003
30/08/2025 17:34:04.7251	3,349448330342772E-001	-2,1308069E-003
30/08/2025 17:34:09.7251	3,318295402467246E-001	-2,1308069E-003
30/08/2025 17:34:14.7251	3,354786232352254E-001	-2,1308069E-003
30/08/2025 17:34:19.7251	3,324148071467875E-001	-2,0926071E-003
30/08/2025 17:34:24.7251	3,513254502832890E-001	-2,1881063E-003
30/08/2025 17:34:29.7251	3,466103299975396E-001	-2,1690065E-003
30/08/2025 17:34:34.7251	3,388900749385357E-001	-2,0735073E-003
30/08/2025 17:34:39.7251	3,468184244096277E-001	-2,1499067E-003
30/08/2025 17:34:44.7251	3,456688017904748E-001	-2,1117069E-003
30/08/2025 17:34:49.7251	3,414014387905588E-001	-2,1499067E-003
30/08/2025 17:34:54.7251	3,464550487160674E-001	-2,1881063E-003
30/08/2025 17:34:59.7251	3,434114791691298E-001	-2,0926071E-003
30/08/2025 17:35:04.7251	3,438167972803106E-001	-2,0544075E-003
30/08/2025 17:35:09.7251	3,443327304184431E-001	-2,1499067E-003
30/08/2025 17:35:14.7251	3,402291778266431E-001	-2,1117069E-003
30/08/2025 17:35:19.7251	3,406915626406670E-001	-2,0544075E-003
30/08/2025 17:35:24.7251	3,396455090284345E-001	-2,1117069E-003
30/08/2025 17:35:29.7251	3,371701455593108E-001	-1,9589085E-003
30/08/2025 17:35:34.7251	3,384857954859735E-001	-2,0926071E-003
30/08/2025 17:35:39.7251	3,437710936486722E-001	-2,0926071E-003
30/08/2025 17:35:44.7251	3,436531611025329E-001	-2,2072061E-003
30/08/2025 17:35:49.7251	3,430906753718848E-001	-2,0735073E-003
30/08/2025 17:35:54.7251	3,463738599240775E-001	-2,0926071E-003
30/08/2025 17:35:59.7251	3,384687661528583E-001	-2,1690065E-003
30/08/2025 17:36:04.7251	3,372158472418780E-001	-2,1499067E-003
30/08/2025 17:36:09.7251	3,362036274492741E-001	-2,0735073E-003
30/08/2025 17:36:14.7251	3,457990655660623E-001	-2,1117069E-003
30/08/2025 17:36:19.7251	3,395138379037380E-001	-2,1308069E-003
30/08/2025 17:36:24.7251	3,383735513746728E-001	-2,1881063E-003
30/08/2025 17:36:29.7251	3,357758917510498E-001	-2,1881063E-003
30/08/2025 17:36:34.7251	3,370411177217951E-001	-2,1308069E-003
30/08/2025 17:36:39.7251	3,390988930761809E-001	-2,2263059E-003
30/08/2025 17:36:44.7251	3,425334047377109E-001	-2,1308069E-003
30/08/2025 17:36:49.7251	3,366512445151804E-001	-2,2645055E-003
30/08/2025 17:36:54.7251	3,390068771600721E-001	-2,0353077E-003
30/08/2025 17:36:59.7251	3,356038714051239E-001	-2,0735073E-003
30/08/2025 17:37:04.7251	3,367091394960879E-001	-2,1690065E-003
30/08/2025 17:37:09.7251	3,281792086184024E-001	-2,1308069E-003
30/08/2025 17:37:14.7251	3,289644114494324E-001	-2,1308069E-003
30/08/2025 17:37:19.7251	3,309871004521843E-001	-2,1881063E-003
30/08/2025 17:37:24.7251	3,274729800283906E-001	-2,1499067E-003
30/08/2025 17:37:29.7251	3,240048052489755E-001	-2,1690065E-003
30/08/2025 17:37:34.7251	3,280453574120994E-001	-2,0735073E-003
30/08/2025 17:37:39.7251	3,250627193152904E-001	-2,1499067E-003
30/08/2025 17:37:44.7251	3,270617040812969E-001	-2,1117069E-003
30/08/2025 17:37:49.7251	3,278458191394802E-001	-2,0735073E-003
30/08/2025 17:37:54.7251	3,296171949923039E-001	-2,1690065E-003
30/08/2025 17:37:59.7251	3,321734703183172E-001	-2,1117069E-003
30/08/2025 17:38:04.7251	3,292212980270381E-001	-2,2263059E-003
30/08/2025 17:38:09.7251	3,404178650021552E-001	-2,0735073E-003
30/08/2025 17:38:14.7251	3,406260302364826E-001	-2,2263059E-003
30/08/2025 17:38:19.7251	3,294442967653266E-001	-2,2645055E-003
30/08/2025 17:38:24.7251	3,279624794542784E-001	-2,0544075E-003
30/08/2025 17:38:29.7251	3,258733698844907E-001	-2,1881063E-003
30/08/2025 17:38:34.7251	3,263776332080361E-001	-2,1690065E-003
30/08/2025 17:38:39.7251	3,198739794015886E-001	-2,0926071E-003
30/08/2025 17:38:44.7251	3,283160121142856E-001	-2,1690065E-003
30/08/2025 17:38:49.7251	3,231876146018502E-001	-2,0926071E-003
30/08/2025 17:38:54.7251	3,225193056285380E-001	-2,0926071E-003
30/08/2025 17:38:59.7251	3,221519305169581E-001	-2,1117069E-003
30/08/2025 17:39:04.7251	3,306646346151829E-001	-2,0926071E-003
30/08/2025 17:39:09.7251	3,198164001345631E-001	-2,1690065E-003
30/08/2025 17:39:14.7251	3,252551250159740E-001	-2,1308069E-003
30/08/2025 17:39:19.7251	3,242720259368417E-001	-2,1690065E-003
30/08/2025 17:39:24.7251	3,210199289619915E-001	-2,1881063E-003
30/08/2025 17:39:29.7251	3,221356477081772E-001	-2,2263059E-003
30/08/2025 17:39:34.7251	3,177189723789686E-001	-2,1117069E-003
30/08/2025 17:39:39.7251	3,163042483150953E-001	-2,0735073E-003
30/08/2025 17:39:44.7251	3,183630448400971E-001	-2,1117069E-003
30/08/2025 17:39:49.7251	3,218972641229629E-001	-2,0926071E-003
30/08/2025 17:39:54.7251	3,224526995122430E-001	-2,1881063E-003
30/08/2025 17:39:59.7251	3,175157405853266E-001	-2,1690065E-003
30/08/2025 17:40:04.7251	3,209041244029995E-001	-2,1117069E-003
30/08/2025 17:40:09.7251	3,159467477798463E-001	-2,1690065E-003
30/08/2025 17:40:14.7251	3,180467366456980E-001	-1,9971081E-003
30/08/2025 17:40:19.7251	3,157342770755287E-001	-2,2645055E-003
30/08/2025 17:40:24.7251	3,177542435050009E-001	-2,1690065E-003
30/08/2025 17:40:29.7251	3,235904988467686E-001	-2,2263059E-003
30/08/2025 17:40:34.7251	3,169143690228458E-001	-2,1117069E-003
30/08/2025 17:40:39.7251	3,153821883380408E-001	-2,2645055E-003
30/08/2025 17:40:44.7251	3,162353678643699E-001	-2,1117069E-003
30/08/2025 17:40:49.7251	3,180219943523399E-001	-2,1499067E-003
30/08/2025 17:40:54.7251	3,140433626651760E-001	-2,1308069E-003
30/08/2025 17:40:59.7251	3,262007247984409E-001	-2,1690065E-003
30/08/2025 17:41:04.7251	3,239791291475296E-001	-2,2454057E-003
30/08/2025 17:41:09.7251	3,239742195248603E-001	-2,0926071E-003
30/08/2025 17:41:14.7251	3,147139295041557E-001	-2,1499067E-003
30/08/2025 17:41:19.7251	3,140766430854791E-001	-2,1308069E-003
30/08/2025 17:41:24.7251	3,150170940518375E-001	-2,1308069E-003
30/08/2025 17:41:29.7251	3,118171470642084E-001	-2,0544075E-003
30/08/2025 17:41:34.7251	3,181813420951363E-001	-2,1881063E-003
30/08/2025 17:41:39.7251	3,150911011457442E-001	-2,1308069E-003
30/08/2025 17:41:44.7251	3,152412426173687E-001	-2,1117069E-003
30/08/2025 17:41:49.7251	3,193931194603437E-001	-2,0353077E-003
30/08/2025 17:41:54.7251	3,157008044242855E-001	-2,0735073E-003
30/08/2025 17:41:59.7251	3,141354613959789E-001	-2,1308069E-003
30/08/2025 17:42:04.7251	3,142447698891164E-001	-2,0162079E-003
30/08/2025 17:42:09.7251	3,212763284504412E-001	-2,0926071E-003
30/08/2025 17:42:14.7251	3,085890665888784E-001	-2,1690065E-003
30/08/2025 17:42:19.7251	3,083910043716431E-001	-2,1881063E-003
30/08/2025 17:42:24.7251	3,061603196799751E-001	-1,9971081E-003
30/08/2025 17:42:29.7251	3,105132007241247E-001	-2,1499067E-003
30/08/2025 17:42:34.7251	3,070667304396624E-001	-2,0735073E-003
30/08/2025 17:42:39.7251	3,042021775960917E-001	-2,1499067E-003
30/08/2025 17:42:44.7251	3,029655633509147E-001	-2,1690065E-003
30/08/2025 17:42:49.7251	3,113170149624347E-001	-2,1499067E-003
30/08/2025 17:42:54.7251	3,073350417256355E-001	-2,1499067E-003
30/08/2025 17:42:59.7251	3,129795432686806E-001	-2,1117069E-003
30/08/2025 17:43:04.7251	3,064763040959830E-001	-2,1117069E-003
30/08/2025 17:43:09.7251	3,079052822172641E-001	-2,0926071E-003
30/08/2025 17:43:14.7251	3,080999753713609E-001	-2,1499067E-003
30/08/2025 17:43:19.7251	3,056315687894822E-001	-2,1308069E-003
30/08/2025 17:43:24.7251	3,052924248754978E-001	-2,1117069E-003
30/08/2025 17:43:29.7251	3,033654288232324E-001	-2,0926071E-003
30/08/2025 17:43:34.7251	3,021777549862861E-001	-2,0544075E-003
30/08/2025 17:43:39.7251	3,135975008308887E-001	-2,0926071E-003
30/08/2025 17:43:44.7251	3,056306015551087E-001	-2,1117069E-003
30/08/2025 17:43:49.7251	3,056510692000389E-001	-2,2645055E-003
30/08/2025 17:43:54.7251	3,032174933671952E-001	-2,1308069E-003
30/08/2025 17:43:59.7251	3,044915574014180E-001	-2,1881063E-003
30/08/2025 17:44:04.7251	3,006221592545510E-001	-2,0735073E-003
30/08/2025 17:44:09.7251	3,118580233693122E-001	-2,1499067E-003
30/08/2025 17:44:14.7251	3,031227977633471E-001	-2,1117069E-003
30/08/2025 17:44:19.7251	2,984807003021235E-001	-2,1690065E-003
30/08/2025 17:44:24.7251	2,965157060801982E-001	-2,1308069E-003
30/08/2025 17:44:29.7251	2,998060062229628E-001	-2,0544075E-003
30/08/2025 17:44:34.7251	3,008820744991301E-001	-2,0926071E-003
30/08/2025 17:44:39.7251	2,972912597715851E-001	-2,1117069E-003
30/08/2025 17:44:44.7251	2,998504420995705E-001	-2,1690065E-003
30/08/2025 17:44:49.7251	2,955136216282845E-001	-2,0735073E-003
30/08/2025 17:44:54.7251	2,991632226765155E-001	-2,0735073E-003
30/08/2025 17:44:59.7251	3,000588963806630E-001	-2,1117069E-003
30/08/2025 17:45:04.7251	2,914277586519718E-001	-2,1308069E-003
30/08/2025 17:45:09.7251	2,940701488852500E-001	-2,1308069E-003
30/08/2025 17:45:14.7251	2,982828127503385E-001	-2,1499067E-003
30/08/2025 17:45:19.7251	2,917551302969450E-001	-2,1308069E-003
30/08/2025 17:45:24.7251	2,934178360641000E-001	-2,0735073E-003
30/08/2025 17:45:29.7251	2,957255887925623E-001	-2,1499067E-003
30/08/2025 17:45:34.7251	2,921449352204792E-001	-2,0544075E-003
30/08/2025 17:45:39.7251	2,891995702624310E-001	-2,1117069E-003
30/08/2025 17:45:44.7251	2,986000001966946E-001	-2,0926071E-003
30/08/2025 17:45:49.7251	3,104446306943887E-001	-2,0926071E-003
30/08/2025 17:45:54.7251	2,989689690828323E-001	-2,1690065E-003
30/08/2025 17:45:59.7251	3,014416942954061E-001	-2,1117069E-003
30/08/2025 17:46:04.7251	2,974941501140589E-001	-2,1499067E-003
30/08/2025 17:46:09.7251	2,934190417647358E-001	-2,2263059E-003
30/08/2025 17:46:14.7251	2,950075039148325E-001	-2,0544075E-003
30/08/2025 17:46:19.7251	2,974336118102072E-001	-2,2072061E-003
30/08/2025 17:46:24.7251	3,040696458697312E-001	-2,1499067E-003
30/08/2025 17:46:29.7251	2,925834447264668E-001	-2,2072061E-003
30/08/2025 17:46:34.7251	2,910416233956807E-001	-2,1499067E-003
30/08/2025 17:46:39.7251	3,002042828261851E-001	-2,1881063E-003
30/08/2025 17:46:44.7251	2,880927349567413E-001	-2,0353077E-003
30/08/2025 17:46:49.7251	3,024104046404359E-001	-2,0926071E-003
30/08/2025 17:46:54.7251	2,929431773543358E-001	-2,2263059E-003
30/08/2025 17:46:59.7251	2,892209615528583E-001	-2,0353077E-003
30/08/2025 17:47:04.7251	2,899960333168501E-001	-2,2454057E-003
30/08/2025 17:47:09.7251	3,010966237306589E-001	-2,1308069E-003
30/08/2025 17:47:14.7251	2,976077820599077E-001	-2,0162079E-003
30/08/2025 17:47:19.7251	2,876788641333581E-001	-2,1308069E-003
30/08/2025 17:47:24.7251	2,917955149352549E-001	-2,1117069E-003
30/08/2025 17:47:29.7251	2,914372564017773E-001	-2,2263059E-003
30/08/2025 17:47:34.7251	2,925154663801184E-001	-2,0735073E-003
30/08/2025 17:47:39.7251	2,882325395643708E-001	-2,1499067E-003
30/08/2025 17:47:44.7251	2,847021994709964E-001	-2,0926071E-003
30/08/2025 17:47:49.7251	2,893477193474761E-001	-2,1499067E-003
30/08/2025 17:47:54.7251	2,934117287635802E-001	-2,0926071E-003
30/08/2025 17:47:59.7251	2,866022069692606E-001	-2,1499067E-003
30/08/2025 17:48:04.7251	2,862555068612098E-001	-2,1308069E-003
30/08/2025 17:48:09.7251	2,872670116245741E-001	-2,0926071E-003
30/08/2025 17:48:14.7251	2,832106602966786E-001	-2,1881063E-003
30/08/2025 17:48:19.7251	2,928179323732847E-001	-2,0926071E-003
30/08/2025 17:48:24.7251	2,911145051598547E-001	-2,1499067E-003
30/08/2025 17:48:29.7251	2,901765650033949E-001	-2,0735073E-003
30/08/2025 17:48:34.7251	2,984829334676258E-001	-2,1308069E-003
30/08/2025 17:48:39.7251	2,894706176757809E-001	-2,2263059E-003
30/08/2025 17:48:44.7251	2,815832195699215E-001	-2,1499067E-003
30/08/2025 17:48:49.7251	2,781054084181785E-001	-2,1690065E-003
30/08/2025 17:48:54.7251	2,820318917989730E-001	-2,2454057E-003
30/08/2025 17:48:59.7251	2,859701894164077E-001	-2,1117069E-003
30/08/2025 17:49:04.7251	2,825071607470502E-001	-2,1499067E-003
30/08/2025 17:49:09.7251	2,798450015485285E-001	-2,1308069E-003
30/08/2025 17:49:14.7251	2,815178551435471E-001	-2,2072061E-003
30/08/2025 17:49:19.7251	2,908837579071513E-001	-2,1690065E-003
30/08/2025 17:49:24.7251	2,809766249775886E-001	-2,0926071E-003
30/08/2025 17:49:29.7251	2,862215231955050E-001	-2,0926071E-003
30/08/2025 17:49:34.7251	2,791828996300696E-001	-2,1117069E-003
30/08/2025 17:49:39.7251	2,781805036008356E-001	-2,0544075E-003
30/08/2025 17:49:44.7251	2,767672337710847E-001	-2,1117069E-003
30/08/2025 17:49:49.7251	2,768292706608773E-001	-2,2263059E-003
30/08/2025 17:49:54.7251	2,758912050127984E-001	-2,1117069E-003
30/08/2025 17:49:59.7251	2,801044895648955E-001	-2,1499067E-003
30/08/2025 17:50:04.7251	2,734325708806518E-001	-2,1308069E-003
30/08/2025 17:50:09.7251	2,767507091164587E-001	-2,0735073E-003
30/08/2025 17:50:14.7251	2,880767630815502E-001	-2,1690065E-003
30/08/2025 17:50:19.7251	2,796444120407093E-001	-2,2072061E-003
30/08/2025 17:50:24.7251	2,799430695235730E-001	-2,0926071E-003
30/08/2025 17:50:29.7251	2,770681575775145E-001	-2,0735073E-003
30/08/2025 17:50:34.7251	2,752872661292551E-001	-2,1117069E-003
30/08/2025 17:50:39.7251	2,805280026078223E-001	-2,1308069E-003
30/08/2025 17:50:44.7251	2,787642528831955E-001	-2,1117069E-003
30/08/2025 17:50:49.7251	2,807408673584453E-001	-2,0926071E-003
30/08/2025 17:50:54.7251	2,752306377410889E-001	-2,1117069E-003
30/08/2025 17:50:59.7251	2,723501586556434E-001	-2,1117069E-003
30/08/2025 17:51:04.7251	2,724248678386205E-001	-2,0926071E-003
30/08/2025 17:51:09.7251	2,758062085807325E-001	-2,1690065E-003
30/08/2025 17:51:14.7251	2,686645628154278E-001	-2,1881063E-003
30/08/2025 17:51:19.7251	2,729004323422909E-001	-2,1308069E-003
30/08/2025 17:51:24.7251	2,668043081700802E-001	-2,0735073E-003
30/08/2025 17:51:29.7251	2,681570354402065E-001	-2,2072061E-003
30/08/2025 17:51:34.7251	2,709185574471942E-001	-2,0926071E-003
30/08/2025 17:51:39.7251	2,696818760275836E-001	-2,2454057E-003
30/08/2025 17:51:44.7251	2,759092206239697E-001	-2,1117069E-003
30/08/2025 17:51:49.7251	2,718332063794136E-001	-2,1690065E-003
30/08/2025 17:51:54.7251	2,726820058941839E-001	-2,0544075E-003
30/08/2025 17:51:59.7251	2,723056792259211E-001	-2,0735073E-003
30/08/2025 17:52:04.7251	2,745139184355736E-001	-2,1308069E-003
30/08/2025 17:52:09.7251	2,658496260166165E-001	-2,2072061E-003
30/08/2025 17:52:14.7251	2,695262118935585E-001	-2,2072061E-003
30/08/2025 17:52:19.7251	2,670709992408753E-001	-2,1117069E-003
30/08/2025 17:52:24.7251	2,675563485264769E-001	-2,1690065E-003
30/08/2025 17:52:29.7251	2,661166458308697E-001	-2,0926071E-003
30/08/2025 17:52:34.7251	2,710707486689091E-001	-2,1690065E-003
30/08/2025 17:52:39.7251	2,701357567012310E-001	-2,1690065E-003
30/08/2025 17:52:44.7251	2,673615911245335E-001	-2,1308069E-003
30/08/2025 17:52:49.7251	2,653187328994271E-001	-2,1308069E-003
30/08/2025 17:52:54.7251	2,676873762071130E-001	-2,2263059E-003
30/08/2025 17:52:59.7251	2,702955042362212E-001	-2,1690065E-003
30/08/2025 17:53:04.7251	2,694084356904028E-001	-2,1690065E-003
30/08/2025 17:53:09.7251	2,602394803911448E-001	-2,2454057E-003
30/08/2025 17:53:14.7251	2,607123582988975E-001	-2,1308069E-003
30/08/2025 17:53:19.7251	2,634315809577701E-001	-2,0926071E-003
30/08/2025 17:53:24.7251	2,666783039569854E-001	-2,2072061E-003
30/08/2025 17:53:29.7251	2,652071092188357E-001	-2,1308069E-003
30/08/2025 17:53:34.7251	2,608838780790563E-001	-2,0544075E-003
30/08/2025 17:53:39.7251	2,721451745688914E-001	-2,0353077E-003
30/08/2025 17:53:44.7251	2,638036115288731E-001	-2,1690065E-003
30/08/2025 17:53:49.7251	2,650950268328189E-001	-2,1690065E-003
30/08/2025 17:53:54.7251	2,644679737210272E-001	-2,0735073E-003
30/08/2025 17:53:59.7251	2,608416914761067E-001	-2,1308069E-003
30/08/2025 17:54:04.7251	2,652432041287421E-001	-2,0926071E-003
30/08/2025 17:54:09.7251	2,608083567768329E-001	-2,2263059E-003
30/08/2025 17:54:14.7251	2,584136212855572E-001	-2,0926071E-003
30/08/2025 17:54:19.7251	2,703588216662407E-001	-2,0926071E-003
30/08/2025 17:54:24.7251	2,612296056449412E-001	-2,1881063E-003
30/08/2025 17:54:29.7251	2,645277719914909E-001	-2,2263059E-003
30/08/2025 17:54:34.7251	2,573591462552547E-001	-2,0735073E-003
30/08/2025 17:54:39.7251	2,548816465526820E-001	-2,1117069E-003
30/08/2025 17:54:44.7251	2,522182443439960E-001	-2,0353077E-003
30/08/2025 17:54:49.7251	2,588390908122058E-001	-2,1117069E-003
30/08/2025 17:54:54.7251	2,618743164539337E-001	-2,1690065E-003
30/08/2025 17:54:59.7251	2,606991814136504E-001	-2,1117069E-003
30/08/2025 17:55:04.7251	2,597581395328046E-001	-2,0926071E-003
30/08/2025 17:55:09.7251	2,580997864842409E-001	-2,1308069E-003
30/08/2025 17:55:14.7251	2,673856670558448E-001	-2,0162079E-003
30/08/2025 17:55:19.7251	2,648664733827113E-001	-2,1690065E-003
30/08/2025 17:55:24.7251	2,595782968074074E-001	-2,1690065E-003
30/08/2025 17:55:29.7251	2,556774360746141E-001	-2,1499067E-003
30/08/2025 17:55:34.7251	2,599520865082736E-001	-2,1881063E-003
30/08/2025 17:55:39.7251	2,550093565344809E-001	-2,0735073E-003
30/08/2025 17:55:44.7251	2,675309772908687E-001	-2,1499067E-003
30/08/2025 17:55:49.7251	2,612817853569984E-001	-2,0735073E-003
30/08/2025 17:55:54.7251	2,530558063656092E-001	-2,0353077E-003
30/08/2025 17:55:59.7251	2,584313271403307E-001	-2,1881063E-003
30/08/2025 17:56:04.7251	2,571375142604109E-001	-2,0926071E-003
30/08/2025 17:56:09.7251	2,545726401835671E-001	-2,1499067E-003
30/08/2025 17:56:14.7251	2,523029795676468E-001	-2,0544075E-003
30/08/2025 17:56:19.7251	2,525692221224309E-001	-2,1117069E-003
30/08/2025 17:56:24.7251	2,498850747406478E-001	-2,0544075E-003
30/08/2025 17:56:29.7251	2,519272751450536E-001	-2,1499067E-003
30/08/2025 17:56:34.7251	2,510733514189720E-001	-2,1308069E-003
30/08/2025 17:56:39.7251	2,631928652167319E-001	-2,1117069E-003
30/08/2025 17:56:44.7251	2,560783384829755E-001	-1,9971081E-003
30/08/2025 17:56:49.7251	2,585350533634423E-001	-2,1881063E-003
30/08/2025 17:56:54.7251	2,556020722538221E-001	-2,1690065E-003
30/08/2025 17:56:59.7251	2,543331587105984E-001	-2,1117069E-003
30/08/2025 17:57:04.7251	2,580739291071890E-001	-2,0544075E-003
30/08/2025 17:57:09.7251	2,541250265717505E-001	-1,9971081E-003
30/08/2025 17:57:14.7251	2,523674410134551E-001	-2,0544075E-003
30/08/2025 17:57:19.7251	2,487399556428194E-001	-2,2072061E-003
30/08/2025 17:57:24.7251	2,492634757697583E-001	-2,1308069E-003
30/08/2025 17:57:29.7251	2,547411908060312E-001	-2,1308069E-003
30/08/2025 17:57:34.7251	2,473857981145382E-001	-2,1117069E-003
30/08/2025 17:57:39.7251	2,436749659448860E-001	-2,2263059E-003
30/08/2025 17:57:44.7251	2,461233208715914E-001	-2,0926071E-003
30/08/2025 17:57:49.7251	2,495533849149940E-001	-2,1499067E-003
30/08/2025 17:57:54.7251	2,449120611369606E-001	-2,0926071E-003
30/08/2025 17:57:59.7251	2,430626698583365E-001	-2,1117069E-003
30/08/2025 17:58:04.7251	2,467016946494578E-001	-2,0926071E-003
30/08/2025 17:58:09.7251	2,443327011466026E-001	-2,0162079E-003
30/08/2025 17:58:14.7251	2,450659485310318E-001	-2,2454057E-003
30/08/2025 17:58:19.7251	2,419963990181682E-001	-2,1308069E-003
30/08/2025 17:58:24.7251	2,443551433056592E-001	-2,2072061E-003
30/08/2025 17:58:29.7251	2,425809619545927E-001	-2,0735073E-003
30/08/2025 17:58:34.7251	2,461535357803104E-001	-2,1308069E-003
30/08/2025 17:58:39.7251	2,469767947971819E-001	-2,2454057E-003
30/08/2025 17:58:44.7251	2,436129546523089E-001	-2,0735073E-003
30/08/2025 17:58:49.7251	2,431726262122389E-001	-2,0926071E-003
30/08/2025 17:58:54.7251	2,427753607034679E-001	-2,0353077E-003
30/08/2025 17:58:59.7251	2,444309669375420E-001	-2,1117069E-003
30/08/2025 17:59:04.7251	2,471418443113560E-001	-2,1117069E-003
30/08/2025 17:59:09.7251	2,453256135255097E-001	-2,1308069E-003
30/08/2025 17:59:14.7251	2,442237040102482E-001	-2,1308069E-003
30/08/2025 17:59:19.7251	2,418510294705629E-001	-2,1308069E-003
30/08/2025 17:59:24.7251	2,424938474923373E-001	-2,1117069E-003
30/08/2025 17:59:29.7251	2,341163096487522E-001	-2,1690065E-003
30/08/2025 17:59:34.7251	2,436855379283420E-001	-2,0926071E-003
30/08/2025 17:59:39.7251	2,541150738567114E-001	-2,0162079E-003
30/08/2025 17:59:44.7251	2,496309247523536E-001	-2,2072061E-003
30/08/2025 17:59:49.7251	2,406756087690587E-001	-2,1499067E-003
30/08/2025 17:59:54.7251	2,489586248785258E-001	-2,1881063E-003
30/08/2025 17:59:59.7251	2,403156860113143E-001	-2,1308069E-003
30/08/2025 18:00:04.7251	2,419026104748250E-001	-2,1881063E-003
30/08/2025 18:00:09.7251	2,412431128710510E-001	-2,2263059E-003
30/08/2025 18:00:14.7251	2,410897302716970E-001	-2,2072061E-003
30/08/2025 18:00:19.7251	2,465667468905446E-001	-2,1308069E-003
30/08/2025 18:00:24.7251	2,386081165254117E-001	-2,0735073E-003
30/08/2025 18:00:29.7251	2,386650048822161E-001	-2,0544075E-003
30/08/2025 18:00:34.7251	2,363421411752693E-001	-2,1499067E-003
30/08/2025 18:00:39.7251	2,426757451593868E-001	-2,2072061E-003
30/08/2025 18:00:44.7251	2,354962910711755E-001	-2,1117069E-003
30/08/2025 18:00:49.7251	2,336377860188481E-001	-2,1499067E-003
30/08/2025 18:00:54.7251	2,329371683478356E-001	-2,0926071E-003
30/08/2025 18:00:59.7251	2,392551535725591E-001	-2,1308069E-003
30/08/2025 18:01:04.7251	2,364164510071274E-001	-2,0735073E-003
30/08/2025 18:01:09.7251	2,465387175500391E-001	-2,1499067E-003
30/08/2025 18:01:14.7251	2,344699160277832E-001	-2,1499067E-003
30/08/2025 18:01:19.7251	2,504220605462790E-001	-2,1117069E-003
30/08/2025 18:01:24.7251	2,483640374273062E-001	-2,0926071E-003
30/08/2025 18:01:29.7251	2,379737318754191E-001	-2,0544075E-003
30/08/2025 18:01:34.7251	2,453015739411116E-001	-2,0162079E-003
30/08/2025 18:01:39.7251	2,423989433675997E-001	-2,0926071E-003
30/08/2025 18:01:44.7251	2,502664550542830E-001	-2,0926071E-003
30/08/2025 18:01:49.7251	2,387904481589791E-001	-2,1690065E-003
30/08/2025 18:01:54.7251	2,377492703050370E-001	-2,1690065E-003
30/08/2025 18:01:59.7251	2,354155287742614E-001	-2,1499067E-003
30/08/2025 18:02:04.7251	2,315043571025130E-001	-2,2072061E-003
30/08/2025 18:02:09.7251	2,341706333994864E-001	-2,0926071E-003
30/08/2025 18:02:14.7251	2,349095880389207E-001	-2,1117069E-003
30/08/2025 18:02:19.7251	2,476713271111248E-001	-2,1117069E-003
30/08/2025 18:02:24.7251	2,379822898626327E-001	-2,1308069E-003
30/08/2025 18:02:29.7251	2,404881059736006E-001	-2,2263059E-003
30/08/2025 18:02:34.7251	2,282434231758117E-001	-2,1308069E-003
30/08/2025 18:02:39.7251	2,361992340087888E-001	-2,2454057E-003
30/08/2025 18:02:44.7251	2,468206050783390E-001	-2,1308069E-003
30/08/2025 18:02:49.7251	2,424203856825820E-001	-2,1881063E-003
30/08/2025 18:02:54.7251	2,349972576498985E-001	-2,0353077E-003
30/08/2025 18:02:59.7251	2,352153354525566E-001	-2,2645055E-003
30/08/2025 18:03:04.7251	2,337688789933919E-001	-2,1308069E-003
30/08/2025 18:03:09.7251	2,297149656206363E-001	-2,1690065E-003
30/08/2025 18:03:14.7251	2,331917227923865E-001	-2,1881063E-003
30/08/2025 18:03:19.7251	2,280335573226213E-001	-2,2454057E-003
30/08/2025 18:03:24.7251	2,343550481945276E-001	-2,1499067E-003
30/08/2025 18:03:29.7251	2,293793293386697E-001	-2,1881063E-003
30/08/2025 18:03:34.7251	2,309710999965666E-001	-2,0735073E-003
30/08/2025 18:03:39.7251	2,302766381651153E-001	-2,2454057E-003
30/08/2025 18:03:44.7251	2,307086967319250E-001	-2,0926071E-003
30/08/2025 18:03:49.7251	2,324240735679854E-001	-2,1308069E-003
30/08/2025 18:03:54.7251	2,300412838011976E-001	-2,0544075E-003
30/08/2025 18:03:59.7251	2,328159887731074E-001	-2,2072061E-003
30/08/2025 18:04:04.7251	2,283493239074943E-001	-2,1117069E-003
30/08/2025 18:04:09.7251	2,279231878519057E-001	-2,1881063E-003
30/08/2025 18:04:14.7251	2,296951263099909E-001	-2,0162079E-003
30/08/2025 18:04:19.7251	2,273249679028986E-001	-2,0735073E-003
30/08/2025 18:04:24.7251	2,259408115029333E-001	-2,1117069E-003
30/08/2025 18:04:29.7251	2,240933149337769E-001	-2,0162079E-003
30/08/2025 18:04:34.7251	2,214087543368339E-001	-2,1881063E-003
30/08/2025 18:04:39.7251	2,258788454324008E-001	-2,1499067E-003
30/08/2025 18:04:44.7251	2,283360739678137E-001	-2,1308069E-003
30/08/2025 18:04:49.7251	2,315300206720821E-001	-2,1308069E-003
30/08/2025 18:04:54.7251	2,327693261444568E-001	-2,1308069E-003
30/08/2025 18:04:59.7251	2,298547701656819E-001	-2,1690065E-003
30/08/2025 18:05:04.7251	2,231514428436756E-001	-2,1881063E-003
30/08/2025 18:05:09.7251	2,213636882096521E-001	-2,1117069E-003
30/08/2025 18:05:14.7251	2,214519159436223E-001	-2,1308069E-003
30/08/2025 18:05:19.7251	2,232863675922152E-001	-2,1690065E-003
30/08/2025 18:05:24.7251	2,222760631591081E-001	-2,1690065E-003
30/08/2025 18:05:29.7251	2,215342433720822E-001	-2,1308069E-003
30/08/2025 18:05:34.7251	2,249909433513873E-001	-2,0735073E-003
30/08/2025 18:05:39.7251	2,281504551619291E-001	-2,1690065E-003
30/08/2025 18:05:44.7251	2,244084512203930E-001	-2,0926071E-003
30/08/2025 18:05:49.7251	2,249203859031192E-001	-2,0544075E-003
30/08/2025 18:05:54.7251	2,222478468269102E-001	-2,1499067E-003
30/08/2025 18:05:59.7251	2,231706889122722E-001	-2,1499067E-003
30/08/2025 18:06:04.7251	2,163596814513205E-001	-2,2072061E-003
30/08/2025 18:06:09.7251	2,170309473544356E-001	-2,1117069E-003
30/08/2025 18:06:14.7251	2,180812451630825E-001	-2,1308069E-003
30/08/2025 18:06:19.7251	2,266476150423288E-001	-2,1308069E-003
30/08/2025 18:06:24.7251	2,145031549602747E-001	-2,1117069E-003
30/08/2025 18:06:29.7251	2,177639073938127E-001	-2,0353077E-003
30/08/2025 18:06:34.7251	2,175799478620288E-001	-2,0926071E-003
30/08/2025 18:06:39.7251	2,158635758936400E-001	-2,1308069E-003
30/08/2025 18:06:44.7251	2,113169502079488E-001	-2,1117069E-003
30/08/2025 18:06:49.7251	2,142543165773150E-001	-2,1308069E-003
30/08/2025 18:06:54.7251	2,119487313359967E-001	-2,1117069E-003
30/08/2025 18:06:59.7251	2,131544473052025E-001	-2,1881063E-003
30/08/2025 18:07:04.7251	2,207493849784132E-001	-2,1690065E-003
30/08/2025 18:07:09.7251	2,105645816683768E-001	-2,1308069E-003
30/08/2025 18:07:14.7251	2,122137458264826E-001	-2,1308069E-003
30/08/2025 18:07:19.7251	2,119675794929261E-001	-2,1117069E-003
30/08/2025 18:07:24.7251	2,149103541284800E-001	-2,0353077E-003
30/08/2025 18:07:29.7251	2,133352499902244E-001	-2,0735073E-003
30/08/2025 18:07:34.7251	2,123977591425179E-001	-2,1499067E-003
30/08/2025 18:07:39.7250	2,107239760696888E-001	-2,1117069E-003
30/08/2025 18:07:44.7250	2,091902375549077E-001	-2,1499067E-003
30/08/2025 18:07:49.7250	2,105187170118094E-001	-2,1308069E-003
30/08/2025 18:07:54.7250	2,087681110382071E-001	-2,1690065E-003
30/08/2025 18:07:59.7250	2,093660168766966E-001	-2,0926071E-003
30/08/2025 18:08:04.7250	2,079646629601712E-001	-2,1308069E-003
30/08/2025 18:08:09.7250	2,083856964111330E-001	-2,0926071E-003
30/08/2025 18:08:14.7250	2,098206167191266E-001	-2,1499067E-003
30/08/2025 18:08:19.7250	2,083165657639503E-001	-2,0735073E-003
30/08/2025 18:08:24.7250	2,091359059065580E-001	-2,1881063E-003
30/08/2025 18:08:29.7250	2,138627590417861E-001	-2,0926071E-003
30/08/2025 18:08:34.7250	2,094255915015935E-001	-2,0735073E-003
30/08/2025 18:08:39.7250	2,111781621247522E-001	-2,1308069E-003
30/08/2025 18:08:44.7250	2,127653392195699E-001	-2,1117069E-003
30/08/2025 18:08:49.7250	2,097441691964864E-001	-2,1690065E-003
30/08/2025 18:08:54.7250	2,086286158502100E-001	-2,1308069E-003
30/08/2025 18:08:59.7250	2,141886658877134E-001	-2,1499067E-003
30/08/2025 18:09:04.7250	2,285652469784021E-001	-2,0544075E-003
30/08/2025 18:09:09.7250	2,157446928083895E-001	-2,1308069E-003
30/08/2025 18:09:14.7250	2,120701123684641E-001	-1,9971081E-003
30/08/2025 18:09:19.7250	2,216733954221009E-001	-2,1308069E-003
30/08/2025 18:09:24.7250	2,228787453740830E-001	-2,1690065E-003
30/08/2025 18:09:29.7250	2,069145430415869E-001	-2,1117069E-003
30/08/2025 18:09:34.7250	2,105181420296427E-001	-2,0735073E-003
30/08/2025 18:09:39.7250	2,149734957367181E-001	-2,1881063E-003
30/08/2025 18:09:44.7250	2,106015709370372E-001	-2,0735073E-003
30/08/2025 18:09:49.7250	2,063633026957508E-001	-2,0162079E-003
30/08/2025 18:09:54.7250	2,126795981258152E-001	-2,1308069E-003
30/08/2025 18:09:59.7250	2,073028945714235E-001	-2,0544075E-003
30/08/2025 18:10:04.7250	2,126551449149845E-001	-1,9780083E-003
30/08/2025 18:10:09.7250	2,135837948441506E-001	-2,1308069E-003
30/08/2025 18:10:14.7250	2,110472036212682E-001	-2,1117069E-003
30/08/2025 18:10:19.7250	2,114593483239409E-001	-2,1881063E-003
30/08/2025 18:10:24.7250	2,111001774519681E-001	-2,1499067E-003
30/08/2025 18:10:29.7250	2,011894007503985E-001	-2,0926071E-003
30/08/2025 18:10:34.7250	2,018705255329607E-001	-2,2454057E-003
30/08/2025 18:10:39.7250	2,028198536902666E-001	-2,1499067E-003
30/08/2025 18:10:44.7250	2,030201353311538E-001	-2,1117069E-003
30/08/2025 18:10:49.7250	2,051318405508988E-001	-2,1308069E-003
30/08/2025 18:10:54.7250	2,064566531658167E-001	-2,1308069E-003
30/08/2025 18:10:59.7250	2,013723003745076E-001	-2,1117069E-003
30/08/2025 18:11:04.7250	2,020254687219856E-001	-2,1117069E-003
30/08/2025 18:11:09.7250	2,000876504629850E-001	-2,1117069E-003
30/08/2025 18:11:14.7250	1,975328426152467E-001	-2,2263059E-003
30/08/2025 18:11:19.7250	1,965305649787187E-001	-2,1308069E-003
30/08/2025 18:11:24.7250	1,992432762622833E-001	-2,1690065E-003
30/08/2025 18:11:29.7250	1,996681596189736E-001	-2,0926071E-003
30/08/2025 18:11:34.7250	2,076601606160402E-001	-2,1308069E-003
30/08/2025 18:11:39.7250	2,014798482328652E-001	-2,0735073E-003
30/08/2025 18:11:44.7250	1,949103040814398E-001	-2,0162079E-003
30/08/2025 18:11:49.7250	1,998291335493325E-001	-2,1117069E-003
30/08/2025 18:11:54.7250	1,969978962749243E-001	-2,2263059E-003
30/08/2025 18:11:59.7250	1,958532898962497E-001	-2,0544075E-003
30/08/2025 18:12:04.7250	1,962412244290110E-001	-2,1881063E-003
30/08/2025 18:12:09.7250	1,972482361018657E-001	-2,1881063E-003
30/08/2025 18:12:14.7250	1,985180558383464E-001	-2,1308069E-003
30/08/2025 18:12:19.7250	2,018645465940234E-001	-1,9971081E-003
30/08/2025 18:12:24.7250	1,976155142277478E-001	-2,0735073E-003
30/08/2025 18:12:29.7250	1,959044612854719E-001	-2,1881063E-003
30/08/2025 18:12:34.7250	1,995416790544984E-001	-2,1117069E-003
30/08/2025 18:12:39.7250	2,014130740910769E-001	-2,1308069E-003
30/08/2025 18:12:44.7250	2,010030045270916E-001	-2,0735073E-003
30/08/2025 18:12:49.7250	1,981755360215901E-001	-2,1308069E-003
30/08/2025 18:12:54.7250	1,921425463378429E-001	-2,1690065E-003
30/08/2025 18:12:59.7250	1,950749454319477E-001	-2,1499067E-003
30/08/2025 18:13:04.7250	1,954492587476966E-001	-2,2072061E-003
30/08/2025 18:13:09.7250	2,042693296283482E-001	-2,1690065E-003
30/08/2025 18:13:14.7250	2,007501885890960E-001	-2,1881063E-003
30/08/2025 18:13:19.7250	1,983451111048459E-001	-2,1881063E-003
30/08/2025 18:13:24.7250	1,977710863947869E-001	-2,1690065E-003
30/08/2025 18:13:29.7250	2,010596491068601E-001	-2,0544075E-003
30/08/2025 18:13:34.7250	1,963751164376736E-001	-2,0926071E-003
30/08/2025 18:13:39.7250	1,932027621656656E-001	-2,0735073E-003
30/08/2025 18:13:44.7250	1,944301100969315E-001	-2,1308069E-003
30/08/2025 18:13:49.7250	1,921599070131778E-001	-2,1308069E-003
30/08/2025 18:13:54.7250	1,927487950176001E-001	-2,2072061E-003
30/08/2025 18:13:59.7250	1,939651108503340E-001	-2,1499067E-003
30/08/2025 18:14:04.7250	2,056986028611654E-001	-2,1308069E-003
30/08/2025 18:14:09.7250	1,975708364874120E-001	-2,1499067E-003
30/08/2025 18:14:14.7250	1,991357541888950E-001	-2,0926071E-003
30/08/2025 18:14:19.7250	1,986890010237692E-001	-2,1499067E-003
30/08/2025 18:14:24.7250	1,928474659919734E-001	-2,0926071E-003
30/08/2025 18:14:29.7250	1,936691115140914E-001	-2,2645055E-003
30/08/2025 18:14:34.7250	1,949514914840458E-001	-1,9971081E-003
30/08/2025 18:14:39.7250	1,934933391004798E-001	-2,0162079E-003
30/08/2025 18:14:44.7250	2,053070408880706E-001	-2,2072061E-003
30/08/2025 18:14:49.7250	2,041147250503297E-001	-2,1499067E-003
30/08/2025 18:14:54.7250	1,992641960203647E-001	-2,0926071E-003
30/08/2025 18:14:59.7250	1,939375662714242E-001	-2,0353077E-003
30/08/2025 18:15:04.7250	1,927167478263378E-001	-2,1499067E-003
30/08/2025 18:15:09.7250	1,911291881650685E-001	-2,0926071E-003
30/08/2025 18:15:14.7250	1,869713410735128E-001	-2,0735073E-003
30/08/2025 18:15:19.7250	1,942617575943468E-001	-2,2263059E-003
30/08/2025 18:15:24.7250	1,892621540546415E-001	-2,1499067E-003
30/08/2025 18:15:29.7250	1,877927606463432E-001	-2,1117069E-003
30/08/2025 18:15:34.7250	1,882152947217226E-001	-2,1881063E-003
30/08/2025 18:15:39.7250	1,873338872849937E-001	-2,0926071E-003
30/08/2025 18:15:44.7250	1,862167659878731E-001	-2,1881063E-003
30/08/2025 18:15:49.7250	1,881416120797395E-001	-2,0926071E-003
30/08/2025 18:15:54.7250	1,899437500268220E-001	-2,2454057E-003
30/08/2025 18:15:59.7250	1,879054956585167E-001	-2,1881063E-003
30/08/2025 18:16:04.7250	1,851067576706407E-001	-2,2072061E-003
30/08/2025 18:16:09.7250	1,946164421468968E-001	-2,1499067E-003
30/08/2025 18:16:14.7250	1,876565524101257E-001	-2,1499067E-003
30/08/2025 18:16:19.7250	1,898187095254660E-001	-2,1308069E-003
30/08/2025 18:16:24.7250	1,845500808984037E-001	-2,1881063E-003
30/08/2025 18:16:29.7250	1,805079839020967E-001	-2,0735073E-003
30/08/2025 18:16:34.7250	1,825729908555746E-001	-2,1499067E-003
30/08/2025 18:16:39.7250	1,943612969875335E-001	-2,0735073E-003
30/08/2025 18:16:44.7250	1,849051385968923E-001	-2,1308069E-003
30/08/2025 18:16:49.7250	1,845797644793983E-001	-2,2263059E-003
30/08/2025 18:16:54.7250	1,880754965692758E-001	-2,1308069E-003
30/08/2025 18:16:59.7250	1,855604515552520E-001	-2,0735073E-003
30/08/2025 18:17:04.7250	1,937542370170355E-001	-2,0735073E-003
30/08/2025 18:17:09.7250	1,860360505491495E-001	-2,0353077E-003
30/08/2025 18:17:14.7250	1,866696304410695E-001	-2,0926071E-003
30/08/2025 18:17:19.7250	1,834848796516657E-001	-2,0926071E-003
30/08/2025 18:17:24.7250	1,819629260390996E-001	-2,1308069E-003
30/08/2025 18:17:29.7250	1,834209705322981E-001	-2,1881063E-003
30/08/2025 18:17:34.7250	1,923385614871975E-001	-2,2072061E-003
30/08/2025 18:17:39.7250	1,840728644192218E-001	-2,1881063E-003
30/08/2025 18:17:44.7250	1,850896184772253E-001	-2,1308069E-003
30/08/2025 18:17:49.7250	1,833143072336912E-001	-2,0926071E-003
30/08/2025 18:17:54.7250	1,851629217535256E-001	-2,1499067E-003
30/08/2025 18:17:59.7250	1,888835137367248E-001	-2,0162079E-003
30/08/2025 18:18:04.7250	1,794243931114672E-001	-2,0544075E-003
30/08/2025 18:18:09.7250	1,787620972216124E-001	-2,1117069E-003
30/08/2025 18:18:14.7250	1,812198717832563E-001	-2,1881063E-003
30/08/2025 18:18:19.7250	1,784472769081592E-001	-2,1308069E-003
30/08/2025 18:18:24.7250	1,782064916253088E-001	-2,1690065E-003
30/08/2025 18:18:29.7250	1,784517269849775E-001	-2,0926071E-003
30/08/2025 18:18:34.7250	1,741131996512413E-001	-2,1499067E-003
30/08/2025 18:18:39.7250	1,771184171050786E-001	-2,1308069E-003
30/08/2025 18:18:44.7250	1,839739990890025E-001	-2,0735073E-003
30/08/2025 18:18:49.7250	1,807729783892629E-001	-2,1690065E-003
30/08/2025 18:18:54.7250	1,756728555053473E-001	-2,1881063E-003
30/08/2025 18:18:59.7250	1,761537893354892E-001	-2,1308069E-003
30/08/2025 18:19:04.7250	1,738608289837837E-001	-2,1499067E-003
30/08/2025 18:19:09.7250	1,783122432619333E-001	-2,0926071E-003
30/08/2025 18:19:14.7250	1,763373743504286E-001	-2,0735073E-003
30/08/2025 18:19:19.7250	1,708501330614087E-001	-2,0735073E-003
30/08/2025 18:19:24.7250	1,719834760397672E-001	-2,1499067E-003
30/08/2025 18:19:29.7250	1,762497899681328E-001	-2,1881063E-003
30/08/2025 18:19:34.7250	1,782497047454117E-001	-2,0735073E-003
30/08/2025 18:19:39.7250	1,854163741350172E-001	-2,1308069E-003
30/08/2025 18:19:44.7250	1,764441892385482E-001	-2,0926071E-003
30/08/2025 18:19:49.7250	1,717925490319729E-001	-2,1117069E-003
30/08/2025 18:19:54.7250	1,749706816047429E-001	-2,0735073E-003
30/08/2025 18:19:59.7250	1,707108966648576E-001	-2,2072061E-003
30/08/2025 18:20:04.7250	1,726904086202381E-001	-2,0353077E-003
30/08/2025 18:20:09.7250	1,728196015834806E-001	-2,1690065E-003
30/08/2025 18:20:14.7250	1,718351041495798E-001	-2,2072061E-003
30/08/2025 18:20:19.7250	1,738300613194704E-001	-2,0926071E-003
30/08/2025 18:20:24.7250	1,682914759457110E-001	-2,0735073E-003
30/08/2025 18:20:29.7250	1,719240400224924E-001	-2,1308069E-003
30/08/2025 18:20:34.7250	1,715715770393609E-001	-2,0926071E-003
30/08/2025 18:20:39.7250	1,723509142339229E-001	-2,0544075E-003
30/08/2025 18:20:44.7250	1,713688259810207E-001	-2,0926071E-003
30/08/2025 18:20:49.7250	1,740750668108463E-001	-1,9780083E-003
30/08/2025 18:20:54.7250	1,719845426499842E-001	-2,0735073E-003
30/08/2025 18:20:59.7250	1,696088459402323E-001	-2,1117069E-003
30/08/2025 18:21:04.7250	1,685621339678760E-001	-2,0735073E-003
30/08/2025 18:21:09.7250	1,771385844051836E-001	-2,1117069E-003
30/08/2025 18:21:14.7250	1,744318323254584E-001	-2,1690065E-003
30/08/2025 18:21:19.7250	1,712746188491582E-001	-2,0926071E-003
30/08/2025 18:21:24.7250	1,704970645189281E-001	-2,0926071E-003
30/08/2025 18:21:29.7250	1,702120870918036E-001	-2,1117069E-003
30/08/2025 18:21:34.7250	1,828593154758215E-001	-2,0544075E-003
30/08/2025 18:21:39.7250	1,732617528378961E-001	-2,1690065E-003
30/08/2025 18:21:44.7250	1,746373568952082E-001	-2,1499067E-003
30/08/2025 18:21:49.7250	1,724952063769098E-001	-2,1117069E-003
30/08/2025 18:21:54.7250	1,709246238172053E-001	-2,0735073E-003
30/08/2025 18:21:59.7250	1,727955673277377E-001	-2,0926071E-003
30/08/2025 18:22:04.7250	1,723087113738060E-001	-2,1499067E-003
30/08/2025 18:22:09.7250	1,696433571487665E-001	-2,0735073E-003
30/08/2025 18:22:14.7250	1,757668803125618E-001	-2,0926071E-003
30/08/2025 18:22:19.7250	1,708943134784697E-001	-2,1690065E-003
30/08/2025 18:22:24.7250	1,727741512089968E-001	-2,1308069E-003
30/08/2025 18:22:29.7250	1,709419246792789E-001	-2,2263059E-003
30/08/2025 18:22:34.7250	1,690640863865613E-001	-2,1499067E-003
30/08/2025 18:22:39.7250	1,715093351215122E-001	-2,1690065E-003
30/08/2025 18:22:44.7250	1,667034499198197E-001	-2,1881063E-003
30/08/2025 18:22:49.7250	1,719507229268551E-001	-2,2454057E-003
30/08/2025 18:22:54.7250	1,716993854969737E-001	-2,0544075E-003
30/08/2025 18:22:59.7250	1,804311014473436E-001	-2,1308069E-003
30/08/2025 18:23:04.7250	1,723811432719229E-001	-2,1117069E-003
30/08/2025 18:23:09.7250	1,708801414072512E-001	-2,0353077E-003
30/08/2025 18:23:14.7250	1,701312399178740E-001	-2,1117069E-003
30/08/2025 18:23:19.7250	1,679882904767989E-001	-2,1117069E-003
30/08/2025 18:23:24.7250	1,672084066689012E-001	-2,1117069E-003
30/08/2025 18:23:29.7250	1,679518509030342E-001	-2,1499067E-003
30/08/2025 18:23:34.7250	1,673119326531887E-001	-2,0162079E-003
30/08/2025 18:23:39.7250	1,645721926063299E-001	-2,2263059E-003
30/08/2025 18:23:44.7250	1,703504892587662E-001	-2,0353077E-003
30/08/2025 18:23:49.7250	1,649299837559461E-001	-2,0926071E-003
30/08/2025 18:23:54.7250	1,614689468622208E-001	-2,1308069E-003
30/08/2025 18:23:59.7250	1,746762389421463E-001	-2,1499067E-003
30/08/2025 18:24:04.7250	1,756223618566988E-001	-2,0353077E-003
30/08/2025 18:24:09.7250	1,652851194828746E-001	-2,1690065E-003
30/08/2025 18:24:14.7250	1,641738664120433E-001	-2,1117069E-003
30/08/2025 18:24:18.6554	1,631729399091908E-001	-2,2263059E-003