File: data/phase_2a/Sergey/3/3.3/02 polarisation/SN50_C7D1_lr 0,1MFeCN6_in_1M_KCl_3306mL_symmetric_balanced_4_point_PEIS_10mV_04_CA_C16.txt
time/s	<I>/mA	Ewe/V
02/09/2025 19:30:04.1405	4,996452824458338E+002	-2,0345915E-003
02/09/2025 19:30:09.1405	2,315413550415042E+002	-2,1300905E-003
02/09/2025 19:30:14.1405	1,635330308654784E+002	-2,1300905E-003
02/09/2025 19:30:19.1405	1,243521578414917E+002	-2,2255897E-003
02/09/2025 19:30:24.1405	9,742497326049801E+001	-2,1873901E-003
02/09/2025 19:30:29.1405	7,744091198425281E+001	-2,0727911E-003
02/09/2025 19:30:34.1405	6,200018144760134E+001	-2,1491903E-003
02/09/2025 19:30:39.1405	4,958112093887326E+001	-2,1491903E-003
02/09/2025 19:30:44.1405	3,891129997634886E+001	-2,2255897E-003
02/09/2025 19:30:49.1405	3,051948506126394E+001	-2,0918909E-003
02/09/2025 19:30:54.1405	2,361918627738952E+001	-2,1109907E-003
02/09/2025 19:30:59.1405	1,781334832115172E+001	-2,0918909E-003
02/09/2025 19:31:04.1405	1,297503933696747E+001	-2,1109907E-003
02/09/2025 19:31:09.1405	9,022445766830437E+000	-2,0536913E-003
02/09/2025 19:31:14.1405	5,784032337665558E+000	-2,0727911E-003
02/09/2025 19:31:19.1405	3,104585919475554E+000	-2,2637893E-003
02/09/2025 19:31:24.1405	1,079855346190929E+000	-2,0918909E-003
02/09/2025 19:31:29.1405	-4,376669750750071E-001	-2,1300905E-003
02/09/2025 19:31:34.1405	-1,565337705922126E+000	-2,0345915E-003
02/09/2025 19:31:39.1405	-2,344709855270388E+000	-1,9772921E-003
02/09/2025 19:31:44.1405	-2,835106076908115E+000	-2,1491903E-003
02/09/2025 19:31:49.1405	-3,128509962320329E+000	-2,1873901E-003
02/09/2025 19:31:54.1405	-3,259543492031099E+000	-2,0345915E-003
02/09/2025 19:31:59.1405	-3,260637279844284E+000	-2,2255897E-003
02/09/2025 19:32:04.1405	-3,152316490316394E+000	-2,2064899E-003
02/09/2025 19:32:09.1405	-2,987327888393402E+000	-2,0918909E-003
02/09/2025 19:32:14.1405	-2,791240886306767E+000	-2,1300905E-003
02/09/2025 19:32:19.1405	-2,564223288059235E+000	-2,1300905E-003
02/09/2025 19:32:24.1405	-2,328821264791493E+000	-2,1300905E-003
02/09/2025 19:32:29.1405	-2,087057649326326E+000	-1,9963919E-003
02/09/2025 19:32:34.1405	-1,837148738908766E+000	-2,1300905E-003
02/09/2025 19:32:39.1405	-1,588899582409862E+000	-2,1109907E-003
02/09/2025 19:32:44.1405	-1,358172807002070E+000	-2,1300905E-003
02/09/2025 19:32:49.1405	-1,125605544328693E+000	-2,1300905E-003
02/09/2025 19:32:54.1405	-9,141338854193695E-001	-2,1682901E-003
02/09/2025 19:32:59.1405	-7,066014432907104E-001	-2,1682901E-003
02/09/2025 19:33:04.1405	-5,063201257288457E-001	-2,2446895E-003
02/09/2025 19:33:09.1405	-3,367358070850379E-001	-2,0918909E-003
02/09/2025 19:33:14.1405	-1,605490185141563E-001	-2,1491903E-003
02/09/2025 19:33:19.1405	4,393991357311989E-004	-2,1491903E-003
02/09/2025 19:33:24.1405	1,459532927528024E-001	-2,1682901E-003
02/09/2025 19:33:29.1405	2,794847773998975E-001	-2,0536913E-003
02/09/2025 19:33:34.1405	4,061741176426410E-001	-2,1491903E-003
02/09/2025 19:33:39.1405	5,021908753991129E-001	-2,1300905E-003
02/09/2025 19:33:44.1405	5,885179172396651E-001	-2,1300905E-003
02/09/2025 19:33:49.1405	6,688196271538729E-001	-2,0536913E-003
02/09/2025 19:33:54.1405	7,472704857826216E-001	-2,1682901E-003
02/09/2025 19:33:59.1405	8,055807774066928E-001	-2,0918909E-003
02/09/2025 19:34:04.1405	8,573415060877796E-001	-2,1682901E-003
02/09/2025 19:34:09.1405	9,115843036055562E-001	-2,0727911E-003
02/09/2025 19:34:14.1405	9,420131762742994E-001	-2,1491903E-003
02/09/2025 19:34:19.1405	9,684163276791571E-001	-2,1300905E-003
02/09/2025 19:34:24.1405	1,005493514454365E+000	-2,2446895E-003
02/09/2025 19:34:29.1405	1,034431241416931E+000	-2,1109907E-003
02/09/2025 19:34:34.1405	1,045555847024916E+000	-2,0727911E-003
02/09/2025 19:34:39.1405	1,053841974782943E+000	-2,1873901E-003
02/09/2025 19:34:44.1405	1,071059915876388E+000	-2,1109907E-003
02/09/2025 19:34:49.1405	1,067836890578270E+000	-2,1300905E-003
02/09/2025 19:34:54.1405	1,085089698505401E+000	-2,0918909E-003
02/09/2025 19:34:59.1405	1,080039577889440E+000	-2,1682901E-003
02/09/2025 19:35:04.1405	1,080209750676154E+000	-2,1109907E-003
02/09/2025 19:35:09.1405	1,091828661561010E+000	-2,1873901E-003
02/09/2025 19:35:14.1405	1,088649308228490E+000	-2,1873901E-003
02/09/2025 19:35:19.1405	1,090095287775993E+000	-2,1682901E-003
02/09/2025 19:35:24.1405	1,096654677700995E+000	-2,2255897E-003
02/09/2025 19:35:29.1405	1,080638418340683E+000	-2,0727911E-003
02/09/2025 19:35:34.1405	1,077076101708411E+000	-2,2255897E-003
02/09/2025 19:35:39.1405	1,064249291062354E+000	-2,0918909E-003
02/09/2025 19:35:44.1405	1,066726695752143E+000	-2,0536913E-003
02/09/2025 19:35:49.1405	1,063531246137618E+000	-2,1682901E-003
02/09/2025 19:35:54.1405	1,061258545851707E+000	-2,1491903E-003
02/09/2025 19:35:59.1405	1,058943834042548E+000	-2,1300905E-003
02/09/2025 19:36:04.1405	1,053234934997558E+000	-2,1682901E-003
02/09/2025 19:36:09.1405	1,046827799034118E+000	-2,0727911E-003
02/09/2025 19:36:14.1405	1,040660050797461E+000	-2,0918909E-003
02/09/2025 19:36:19.1405	1,040977857208251E+000	-2,1873901E-003
02/09/2025 19:36:24.1405	1,042327877902985E+000	-2,1682901E-003
02/09/2025 19:36:29.1405	1,036436344814298E+000	-2,0345915E-003
02/09/2025 19:36:34.1405	1,036166071295738E+000	-2,1873901E-003
02/09/2025 19:36:39.1405	1,033357359600068E+000	-2,1109907E-003
02/09/2025 19:36:44.1405	1,032885063362121E+000	-2,1491903E-003
02/09/2025 19:36:49.1405	1,031060491967200E+000	-2,1682901E-003
02/09/2025 19:36:54.1405	1,032506703710556E+000	-2,2064899E-003
02/09/2025 19:36:59.1405	1,025506356298923E+000	-2,1873901E-003
02/09/2025 19:37:04.1405	1,026516297841072E+000	-2,1682901E-003
02/09/2025 19:37:09.1405	1,025003714168069E+000	-2,1491903E-003
02/09/2025 19:37:14.1405	1,033267568969727E+000	-2,1300905E-003
02/09/2025 19:37:19.1405	1,017959556019306E+000	-2,1873901E-003
02/09/2025 19:37:24.1405	1,006769035398960E+000	-2,1300905E-003
02/09/2025 19:37:29.1405	1,009673147034643E+000	-2,1300905E-003
02/09/2025 19:37:34.1405	1,014637184417246E+000	-2,1300905E-003
02/09/2025 19:37:39.1405	1,007633295464515E+000	-2,1491903E-003
02/09/2025 19:37:44.1405	1,004536708521844E+000	-2,1682901E-003
02/09/2025 19:37:49.1405	1,005041982996461E+000	-2,1491903E-003
02/09/2025 19:37:54.1405	1,012557868099212E+000	-2,2064899E-003
02/09/2025 19:37:59.1405	1,001228083872795E+000	-2,0918909E-003
02/09/2025 19:38:04.1405	1,002241047441956E+000	-2,0727911E-003
02/09/2025 19:38:09.1405	1,001374251508712E+000	-2,0727911E-003
02/09/2025 19:38:14.1405	1,002723730266091E+000	-2,1491903E-003
02/09/2025 19:38:19.1405	1,000598168802261E+000	-2,0918909E-003
02/09/2025 19:38:24.1405	9,937872698903050E-001	-2,1873901E-003
02/09/2025 19:38:29.1405	1,001715066349506E+000	-2,1300905E-003
02/09/2025 19:38:34.1405	9,993425241947165E-001	-2,0536913E-003
02/09/2025 19:38:39.1405	9,978771123886103E-001	-2,0536913E-003
02/09/2025 19:38:44.1405	9,894026841759640E-001	-2,0918909E-003
02/09/2025 19:38:49.1405	9,870892975807184E-001	-2,0727911E-003
02/09/2025 19:38:54.1405	9,934278993964174E-001	-2,1873901E-003
02/09/2025 19:38:59.1405	9,865194147348397E-001	-2,1300905E-003
02/09/2025 19:39:04.1405	9,861653132081010E-001	-2,0536913E-003
02/09/2025 19:39:09.1405	9,955441053152061E-001	-2,1682901E-003
02/09/2025 19:39:14.1405	9,902755873799300E-001	-2,1109907E-003
02/09/2025 19:39:19.1405	9,878375570178028E-001	-2,1300905E-003
02/09/2025 19:39:24.1405	9,889421965003011E-001	-2,1491903E-003
02/09/2025 19:39:29.1405	9,898292449593542E-001	-2,1300905E-003
02/09/2025 19:39:34.1405	9,843732294559473E-001	-2,1873901E-003
02/09/2025 19:39:39.1405	9,727765883326531E-001	-2,1109907E-003
02/09/2025 19:39:44.1405	9,818807389855380E-001	-2,1300905E-003
02/09/2025 19:39:49.1405	9,805620281219483E-001	-2,1491903E-003
02/09/2025 19:39:54.1405	9,771068402409551E-001	-2,0918909E-003
02/09/2025 19:39:59.1405	9,718461925268151E-001	-2,0918909E-003
02/09/2025 19:40:04.1405	9,685737849354723E-001	-2,1682901E-003
02/09/2025 19:40:09.1405	9,697624407768248E-001	-2,0727911E-003
02/09/2025 19:40:14.1405	9,607552464604368E-001	-2,1873901E-003
02/09/2025 19:40:19.1405	9,682541816115346E-001	-2,1491903E-003
02/09/2025 19:40:24.1405	9,693086943149574E-001	-2,0536913E-003
02/09/2025 19:40:29.1405	9,561034154415129E-001	-2,1109907E-003
02/09/2025 19:40:34.1405	9,605721456766112E-001	-2,1873901E-003
02/09/2025 19:40:39.1405	9,523630014061908E-001	-2,1300905E-003
02/09/2025 19:40:44.1405	9,614147803068143E-001	-2,1873901E-003
02/09/2025 19:40:49.1405	9,578184363603555E-001	-2,0918909E-003
02/09/2025 19:40:54.1405	9,595170733451823E-001	-2,0345915E-003
02/09/2025 19:40:59.1405	9,619586176037789E-001	-2,1109907E-003
02/09/2025 19:41:04.1405	9,539553640007981E-001	-2,1491903E-003
02/09/2025 19:41:09.1405	9,497046474933624E-001	-2,0727911E-003
02/09/2025 19:41:14.1405	9,523438647747042E-001	-2,0154917E-003
02/09/2025 19:41:19.1405	9,534623743176454E-001	-2,0727911E-003
02/09/2025 19:41:24.1405	9,574468446612343E-001	-2,1300905E-003
02/09/2025 19:41:29.1405	9,503549319982528E-001	-2,1109907E-003
02/09/2025 19:41:34.1405	9,478280393242837E-001	-2,0154917E-003
02/09/2025 19:41:39.1405	9,520252159118652E-001	-2,1491903E-003
02/09/2025 19:41:44.1405	9,489870622515677E-001	-2,1873901E-003
02/09/2025 19:41:49.1405	9,441389204144457E-001	-2,0727911E-003
02/09/2025 19:41:54.1405	9,397721778988837E-001	-2,0536913E-003
02/09/2025 19:41:59.1405	9,389439971685398E-001	-2,0345915E-003
02/09/2025 19:42:04.1405	9,439533079266518E-001	-2,2637893E-003
02/09/2025 19:42:09.1405	9,332308977007848E-001	-2,2637893E-003
02/09/2025 19:42:14.1405	9,346172085761992E-001	-2,0918909E-003
02/09/2025 19:42:19.1405	9,267087396502482E-001	-2,1300905E-003
02/09/2025 19:42:24.1405	9,231666423082343E-001	-2,0918909E-003
02/09/2025 19:42:29.1405	9,304416548609709E-001	-2,0345915E-003
02/09/2025 19:42:34.1405	9,214869289875018E-001	-1,9390924E-003
02/09/2025 19:42:39.1405	9,145124711275088E-001	-1,9772921E-003
02/09/2025 19:42:44.1405	9,218662607789021E-001	-2,0727911E-003
02/09/2025 19:42:49.1405	9,216973297595974E-001	-2,1109907E-003
02/09/2025 19:42:54.1405	9,137610070466948E-001	-2,2255897E-003
02/09/2025 19:42:59.1405	9,101721214055996E-001	-2,2255897E-003
02/09/2025 19:43:04.1405	9,074467515110962E-001	-2,1491903E-003
02/09/2025 19:43:09.1405	9,178536476612091E-001	-2,0536913E-003
02/09/2025 19:43:14.1405	9,134643546581245E-001	-2,2064899E-003
02/09/2025 19:43:19.1405	9,089663249373423E-001	-2,1109907E-003
02/09/2025 19:43:24.1405	9,093645685195888E-001	-2,1300905E-003
02/09/2025 19:43:29.1405	9,070784155130376E-001	-2,1682901E-003
02/09/2025 19:43:34.1405	9,032183519005752E-001	-2,1109907E-003
02/09/2025 19:43:39.1405	8,997011035442348E-001	-2,1682901E-003
02/09/2025 19:43:44.1405	9,062940604329093E-001	-2,1491903E-003
02/09/2025 19:43:49.1405	8,996275695562361E-001	-2,1682901E-003
02/09/2025 19:43:54.1405	8,878725244045254E-001	-2,0918909E-003
02/09/2025 19:43:59.1405	8,981696078181258E-001	-2,1300905E-003
02/09/2025 19:44:04.1405	8,974263870954502E-001	-2,0536913E-003
02/09/2025 19:44:09.1405	9,006405899524665E-001	-2,2064899E-003
02/09/2025 19:44:14.1405	8,957722501754724E-001	-2,0727911E-003
02/09/2025 19:44:19.1405	8,834610378503793E-001	-2,0918909E-003
02/09/2025 19:44:24.1405	8,883425171971311E-001	-2,1491903E-003
02/09/2025 19:44:29.1405	8,889014427900293E-001	-2,1300905E-003
02/09/2025 19:44:34.1405	8,826656067967384E-001	-2,0536913E-003
02/09/2025 19:44:39.1405	8,910893450140946E-001	-2,0536913E-003
02/09/2025 19:44:44.1405	8,913184126973128E-001	-2,0536913E-003
02/09/2025 19:44:49.1405	8,812593954563148E-001	-2,1109907E-003
02/09/2025 19:44:54.1405	8,854816248774515E-001	-2,1873901E-003
02/09/2025 19:44:59.1405	8,844103964447960E-001	-2,0727911E-003
02/09/2025 19:45:04.1405	8,831145955085749E-001	-2,1300905E-003
02/09/2025 19:45:09.1405	8,757668440103501E-001	-2,0345915E-003
02/09/2025 19:45:14.1405	8,783688377976375E-001	-2,0727911E-003
02/09/2025 19:45:19.1405	8,800912849068609E-001	-2,1682901E-003
02/09/2025 19:45:24.1405	8,684826401829717E-001	-2,1682901E-003
02/09/2025 19:45:29.1405	8,733737714290601E-001	-2,1682901E-003
02/09/2025 19:45:34.1405	8,751356820940970E-001	-2,1873901E-003
02/09/2025 19:45:39.1405	8,772573813796001E-001	-2,0536913E-003
02/09/2025 19:45:44.1405	8,739372542262074E-001	-2,1873901E-003
02/09/2025 19:45:49.1405	8,608111738681793E-001	-2,1682901E-003
02/09/2025 19:45:54.1405	8,676940398573869E-001	-2,0154917E-003
02/09/2025 19:45:59.1405	8,682706142425509E-001	-2,0918909E-003
02/09/2025 19:46:04.1405	8,735240570664402E-001	-2,1682901E-003
02/09/2025 19:46:09.1405	8,604496281981469E-001	-2,1109907E-003
02/09/2025 19:46:14.1405	8,634924548029890E-001	-2,0727911E-003
02/09/2025 19:46:19.1405	8,626872123241398E-001	-2,1873901E-003
02/09/2025 19:46:24.1405	8,476633213996880E-001	-1,9199926E-003
02/09/2025 19:46:29.1405	8,485519611120225E-001	-2,2064899E-003
02/09/2025 19:46:34.1405	8,659697430372226E-001	-2,1491903E-003
02/09/2025 19:46:39.1405	8,517164719939228E-001	-2,1300905E-003
02/09/2025 19:46:44.1405	8,419560606837262E-001	-2,1873901E-003
02/09/2025 19:46:49.1405	8,467840850353223E-001	-2,1682901E-003
02/09/2025 19:46:54.1405	8,468176057338712E-001	-2,1682901E-003
02/09/2025 19:46:59.1405	8,390825525999057E-001	-2,1491903E-003
02/09/2025 19:47:04.1405	8,389208770871122E-001	-2,2255897E-003
02/09/2025 19:47:09.1405	8,466678006649015E-001	-2,1491903E-003
02/09/2025 19:47:14.1405	8,378633433818798E-001	-2,0727911E-003
02/09/2025 19:47:19.1405	8,448574252009387E-001	-2,1109907E-003
02/09/2025 19:47:24.1405	8,414683583736409E-001	-2,1491903E-003
02/09/2025 19:47:29.1405	8,423826433300974E-001	-2,0154917E-003
02/09/2025 19:47:34.1405	8,393810523867593E-001	-2,3401885E-003
02/09/2025 19:47:39.1405	8,279433026313772E-001	-2,1491903E-003
02/09/2025 19:47:44.1405	8,438458097696291E-001	-2,1109907E-003
02/09/2025 19:47:49.1405	8,391581976294518E-001	-2,1682901E-003
02/09/2025 19:47:54.1405	8,266941885828971E-001	-2,1109907E-003
02/09/2025 19:47:59.1405	8,361361656665800E-001	-2,1300905E-003
02/09/2025 19:48:04.1405	8,273971449971178E-001	-2,1109907E-003
02/09/2025 19:48:09.1405	8,318256607413268E-001	-2,1109907E-003
02/09/2025 19:48:14.1405	8,327519657611830E-001	-2,2064899E-003
02/09/2025 19:48:19.1405	8,332500765442816E-001	-2,1300905E-003
02/09/2025 19:48:24.1405	8,291305699586857E-001	-2,1491903E-003
02/09/2025 19:48:29.1405	8,263551009297370E-001	-2,0918909E-003
02/09/2025 19:48:34.1405	8,243760406613347E-001	-2,0918909E-003
02/09/2025 19:48:39.1405	8,251064206004131E-001	-2,1873901E-003
02/09/2025 19:48:44.1405	8,281591397523878E-001	-2,0536913E-003
02/09/2025 19:48:49.1405	8,236642684459667E-001	-2,1682901E-003
02/09/2025 19:48:54.1405	8,227322607636447E-001	-2,1491903E-003
02/09/2025 19:48:59.1405	8,261784562587735E-001	-2,0345915E-003
02/09/2025 19:49:04.1405	8,102840383291223E-001	-2,1682901E-003
02/09/2025 19:49:09.1405	8,098782162547113E-001	-2,1109907E-003
02/09/2025 19:49:14.1405	8,155128888726235E-001	-2,1682901E-003
02/09/2025 19:49:19.1405	8,146631250023830E-001	-2,1873901E-003
02/09/2025 19:49:24.1405	8,135400653004634E-001	-2,0918909E-003
02/09/2025 19:49:29.1405	8,059041566491123E-001	-2,0918909E-003
02/09/2025 19:49:34.1405	8,044021689534187E-001	-2,0918909E-003
02/09/2025 19:49:39.1405	8,091715593218802E-001	-2,1300905E-003
02/09/2025 19:49:44.1405	8,057464291453362E-001	-2,2064899E-003
02/09/2025 19:49:49.1405	8,022093965888004E-001	-2,1109907E-003
02/09/2025 19:49:54.1405	7,979256385087963E-001	-2,1300905E-003
02/09/2025 19:49:59.1405	8,008070608377456E-001	-2,1300905E-003
02/09/2025 19:50:04.1405	7,973687010645865E-001	-2,0536913E-003
02/09/2025 19:50:09.1405	8,008075450778005E-001	-2,0536913E-003
02/09/2025 19:50:14.1405	8,066415614128104E-001	-2,1109907E-003
02/09/2025 19:50:19.1405	7,930612771511072E-001	-2,0918909E-003
02/09/2025 19:50:24.1405	7,952919162988650E-001	-2,1109907E-003
02/09/2025 19:50:29.1405	7,889159873962401E-001	-2,0536913E-003
02/09/2025 19:50:34.1405	7,849705854296682E-001	-2,0345915E-003
02/09/2025 19:50:39.1405	7,941809193849565E-001	-2,2064899E-003
02/09/2025 19:50:44.1405	7,860372085571288E-001	-2,1109907E-003
02/09/2025 19:50:49.1405	7,897030216097827E-001	-2,1109907E-003
02/09/2025 19:50:54.1405	7,854269790768620E-001	-2,0154917E-003
02/09/2025 19:50:59.1405	7,857053101062768E-001	-2,1109907E-003
02/09/2025 19:51:04.1405	7,865204753756521E-001	-2,1873901E-003
02/09/2025 19:51:09.1405	7,755266928672793E-001	-2,0536913E-003
02/09/2025 19:51:14.1405	7,854133779048920E-001	-2,1300905E-003
02/09/2025 19:51:19.1405	7,781230239272117E-001	-2,0918909E-003
02/09/2025 19:51:24.1405	7,759188872337344E-001	-2,1109907E-003
02/09/2025 19:51:29.1405	7,800074349164952E-001	-2,1109907E-003
02/09/2025 19:51:34.1405	7,779267220020287E-001	-2,0918909E-003
02/09/2025 19:51:39.1405	7,743424075841903E-001	-2,0918909E-003
02/09/2025 19:51:44.1405	7,737475012302397E-001	-2,0918909E-003
02/09/2025 19:51:49.1405	7,690206566691398E-001	-2,1300905E-003
02/09/2025 19:51:54.1405	7,653572421550754E-001	-2,1300905E-003
02/09/2025 19:51:59.1405	7,622115087509149E-001	-2,0918909E-003
02/09/2025 19:52:04.1405	7,770411513209332E-001	-2,1873901E-003
02/09/2025 19:52:09.1405	7,714750943660729E-001	-2,2064899E-003
02/09/2025 19:52:14.1405	7,634366540908815E-001	-2,0918909E-003
02/09/2025 19:52:19.1405	7,603420419573776E-001	-2,1491903E-003
02/09/2025 19:52:24.1405	7,619354753494261E-001	-2,1109907E-003
02/09/2025 19:52:29.1405	7,636501227498051E-001	-2,1300905E-003
02/09/2025 19:52:34.1405	7,528631144762037E-001	-2,0918909E-003
02/09/2025 19:52:39.1405	7,607747225642205E-001	-2,0727911E-003
02/09/2025 19:52:44.1405	7,629446570515626E-001	-2,0727911E-003
02/09/2025 19:52:49.1405	7,519107863783834E-001	-2,1300905E-003
02/09/2025 19:52:54.1405	7,551609437942499E-001	-2,1109907E-003
02/09/2025 19:52:59.1405	7,498346089243881E-001	-2,0918909E-003
02/09/2025 19:53:04.1405	7,434148053884506E-001	-2,0727911E-003
02/09/2025 19:53:09.1405	7,493781434297562E-001	-2,1682901E-003
02/09/2025 19:53:14.1405	7,523529580712314E-001	-2,1300905E-003
02/09/2025 19:53:19.1405	7,479538396239276E-001	-2,1109907E-003
02/09/2025 19:53:24.1405	7,545946877717968E-001	-2,1491903E-003
02/09/2025 19:53:29.1405	7,520190121412256E-001	-2,0918909E-003
02/09/2025 19:53:34.1405	7,498277296185494E-001	-2,1491903E-003
02/09/2025 19:53:39.1405	7,496199156999577E-001	-2,1109907E-003
02/09/2025 19:53:44.1405	7,524488117575636E-001	-2,1682901E-003
02/09/2025 19:53:49.1405	7,407269410371780E-001	-2,1491903E-003
02/09/2025 19:53:54.1405	7,426219442009927E-001	-2,0918909E-003
02/09/2025 19:53:59.1405	7,408153554797163E-001	-2,0918909E-003
02/09/2025 19:54:04.1405	7,376558387398706E-001	-2,0918909E-003
02/09/2025 19:54:09.1405	7,405877191424359E-001	-2,0918909E-003
02/09/2025 19:54:14.1405	7,324582226157190E-001	-2,0918909E-003
02/09/2025 19:54:19.1405	7,361694351434700E-001	-2,0918909E-003
02/09/2025 19:54:24.1405	7,360168624043464E-001	-2,0918909E-003
02/09/2025 19:54:29.1405	7,306976087450980E-001	-2,1682901E-003
02/09/2025 19:54:34.1405	7,232976103305813E-001	-2,1300905E-003
02/09/2025 19:54:39.1405	7,268282952785476E-001	-2,2255897E-003
02/09/2025 19:54:44.1405	7,266601859092714E-001	-2,0727911E-003
02/09/2025 19:54:49.1405	7,232654186010352E-001	-2,1873901E-003
02/09/2025 19:54:54.1405	7,206300030112258E-001	-2,1491903E-003
02/09/2025 19:54:59.1405	7,212156692028042E-001	-2,2255897E-003
02/09/2025 19:55:04.1405	7,214367345809936E-001	-2,2255897E-003
02/09/2025 19:55:09.1405	7,206405968070029E-001	-2,1873901E-003
02/09/2025 19:55:14.1405	7,239362576365471E-001	-2,1682901E-003
02/09/2025 19:55:19.1405	7,235424326896656E-001	-2,1109907E-003
02/09/2025 19:55:24.1405	7,154010136961926E-001	-2,1491903E-003
02/09/2025 19:55:29.1405	7,079490363717080E-001	-2,1682901E-003
02/09/2025 19:55:34.1405	7,153257782459255E-001	-2,1491903E-003
02/09/2025 19:55:39.1405	7,178327362895010E-001	-2,1873901E-003
02/09/2025 19:55:44.1405	7,148173227190977E-001	-2,0918909E-003
02/09/2025 19:55:49.1405	7,030077099800103E-001	-2,0727911E-003
02/09/2025 19:55:54.1405	7,138698523998261E-001	-2,0727911E-003
02/09/2025 19:55:59.1405	7,098473669171330E-001	-2,0727911E-003
02/09/2025 19:56:04.1405	7,022418508529658E-001	-2,0727911E-003
02/09/2025 19:56:09.1405	7,048033676385863E-001	-2,1682901E-003
02/09/2025 19:56:14.1405	6,958504346132277E-001	-2,0918909E-003
02/09/2025 19:56:19.1405	6,929858793139454E-001	-2,1491903E-003
02/09/2025 19:56:24.1405	6,890503058195110E-001	-2,1682901E-003
02/09/2025 19:56:29.1405	6,858543246865265E-001	-2,1300905E-003
02/09/2025 19:56:34.1405	6,940179246187199E-001	-2,0918909E-003
02/09/2025 19:56:39.1405	6,959499647140501E-001	-2,1491903E-003
02/09/2025 19:56:44.1405	6,925424913764000E-001	-2,0918909E-003
02/09/2025 19:56:49.1405	6,936160187482834E-001	-2,0918909E-003
02/09/2025 19:56:54.1405	6,915879056692127E-001	-2,1109907E-003
02/09/2025 19:56:59.1405	6,959038368463516E-001	-2,0918909E-003
02/09/2025 19:57:04.1405	6,899349095940590E-001	-2,1300905E-003
02/09/2025 19:57:09.1405	6,832459603071210E-001	-2,1491903E-003
02/09/2025 19:57:14.1405	6,786922199368477E-001	-2,2828891E-003
02/09/2025 19:57:19.1405	6,800323811769475E-001	-2,1109907E-003
02/09/2025 19:57:24.1405	6,790009189248081E-001	-2,0918909E-003
02/09/2025 19:57:29.1405	6,843489219427106E-001	-2,1300905E-003
02/09/2025 19:57:34.1405	6,823656919479362E-001	-2,1873901E-003
02/09/2025 19:57:39.1405	6,744710108637806E-001	-2,1873901E-003
02/09/2025 19:57:44.1405	6,764135157465923E-001	-2,1873901E-003
02/09/2025 19:57:49.1405	6,778418575048430E-001	-2,1682901E-003
02/09/2025 19:57:54.1405	6,777024870038032E-001	-2,0727911E-003
02/09/2025 19:57:59.1405	6,725758700132367E-001	-1,9772921E-003
02/09/2025 19:58:04.1405	6,721432001709928E-001	-2,1300905E-003
02/09/2025 19:58:09.1405	6,702902876853942E-001	-2,1682901E-003
02/09/2025 19:58:14.1405	6,634384938120843E-001	-2,0918909E-003
02/09/2025 19:58:19.1405	6,655924443364132E-001	-2,0918909E-003
02/09/2025 19:58:24.1405	6,660260721325866E-001	-2,0536913E-003
02/09/2025 19:58:29.1405	6,812521103262901E-001	-2,0727911E-003
02/09/2025 19:58:34.1405	6,729155937194804E-001	-2,1109907E-003
02/09/2025 19:58:39.1405	6,690080260753621E-001	-2,0918909E-003
02/09/2025 19:58:44.1405	6,609489469647398E-001	-2,0345915E-003
02/09/2025 19:58:49.1405	6,623685812830926E-001	-2,0918909E-003
02/09/2025 19:58:54.1405	6,593961519122118E-001	-2,1682901E-003
02/09/2025 19:58:59.1405	6,618468142867089E-001	-2,2064899E-003
02/09/2025 19:59:04.1405	6,645806277155870E-001	-2,1491903E-003
02/09/2025 19:59:09.1405	6,567163630247101E-001	-2,0918909E-003
02/09/2025 19:59:14.1405	6,565750020980836E-001	-2,1491903E-003
02/09/2025 19:59:19.1405	6,570990561008454E-001	-2,1873901E-003
02/09/2025 19:59:24.1405	6,615003974437712E-001	-2,0918909E-003
02/09/2025 19:59:29.1405	6,592215331792830E-001	-2,1300905E-003
02/09/2025 19:59:34.1405	6,585522108912460E-001	-2,1682901E-003
02/09/2025 19:59:39.1405	6,487255276679971E-001	-2,1873901E-003
02/09/2025 19:59:44.1405	6,457791278600693E-001	-2,0345915E-003
02/09/2025 19:59:49.1405	6,598482969403250E-001	-2,1491903E-003
02/09/2025 19:59:54.1405	6,545606233000756E-001	-2,0536913E-003
02/09/2025 19:59:59.1405	6,463522400259967E-001	-2,1491903E-003
02/09/2025 20:00:04.1405	6,497009168863297E-001	-2,0345915E-003
02/09/2025 20:00:09.1405	6,529250665426254E-001	-2,0727911E-003
02/09/2025 20:00:14.1405	6,452906217575070E-001	-2,3210887E-003
02/09/2025 20:00:19.1405	6,401364959239952E-001	-2,1109907E-003
02/09/2025 20:00:24.1405	6,466569874644279E-001	-2,1682901E-003
02/09/2025 20:00:29.1405	6,409049267053586E-001	-2,1491903E-003
02/09/2025 20:00:34.1405	6,542248015880583E-001	-2,1491903E-003
02/09/2025 20:00:39.1405	6,525600079417222E-001	-2,0536913E-003
02/09/2025 20:00:44.1405	6,399056293368339E-001	-2,0536913E-003
02/09/2025 20:00:49.1405	6,395054247617722E-001	-2,0918909E-003
02/09/2025 20:00:54.1405	6,349626348376258E-001	-2,0345915E-003
02/09/2025 20:00:59.1405	6,298943017840388E-001	-2,2255897E-003
02/09/2025 20:01:04.1405	6,328547484517095E-001	-2,2446895E-003
02/09/2025 20:01:09.1405	6,288257296800608E-001	-2,1491903E-003
02/09/2025 20:01:14.1405	6,353056635260561E-001	-2,1300905E-003
02/09/2025 20:01:19.1405	6,288549540758126E-001	-2,1491903E-003
02/09/2025 20:01:24.1405	6,265620174169531E-001	-2,1682901E-003
02/09/2025 20:01:29.1405	6,287211832165713E-001	-2,1873901E-003
02/09/2025 20:01:34.1405	6,254001994013780E-001	-2,1300905E-003
02/09/2025 20:01:39.1405	6,199276835680010E-001	-2,0918909E-003
02/09/2025 20:01:44.1405	6,227853464961033E-001	-2,0536913E-003
02/09/2025 20:01:49.1405	6,225138458013522E-001	-2,1491903E-003
02/09/2025 20:01:54.1405	6,212982375860214E-001	-2,1682901E-003
02/09/2025 20:01:59.1405	6,153209856748578E-001	-2,1873901E-003
02/09/2025 20:02:04.1405	6,145101903319352E-001	-1,9963919E-003
02/09/2025 20:02:09.1405	6,187452498912815E-001	-2,1109907E-003
02/09/2025 20:02:14.1405	6,152935016036033E-001	-2,2255897E-003
02/09/2025 20:02:19.1405	6,079601271629311E-001	-2,2637893E-003
02/09/2025 20:02:24.1405	6,133985319137576E-001	-2,1109907E-003
02/09/2025 20:02:29.1405	6,107678232431404E-001	-2,0154917E-003
02/09/2025 20:02:34.1405	6,110902212619784E-001	-2,1109907E-003
02/09/2025 20:02:39.1405	6,083986197829245E-001	-2,1109907E-003
02/09/2025 20:02:44.1405	6,084963610768317E-001	-2,1109907E-003
02/09/2025 20:02:49.1405	6,016159054279328E-001	-2,1873901E-003
02/09/2025 20:02:54.1405	6,097999876260753E-001	-2,0536913E-003
02/09/2025 20:02:59.1405	6,032943486809721E-001	-2,1873901E-003
02/09/2025 20:03:04.1405	6,106402271151543E-001	-2,0727911E-003
02/09/2025 20:03:09.1405	6,024617468118665E-001	-2,0918909E-003
02/09/2025 20:03:14.1405	6,006902556180949E-001	-2,2064899E-003
02/09/2025 20:03:19.1405	6,035475202083584E-001	-2,2255897E-003
02/09/2025 20:03:24.1405	5,954522016763679E-001	-2,0727911E-003
02/09/2025 20:03:29.1405	6,038026400208452E-001	-2,1491903E-003
02/09/2025 20:03:34.1405	5,965675952196108E-001	-2,2255897E-003
02/09/2025 20:03:39.1405	5,918202336192131E-001	-2,1300905E-003
02/09/2025 20:03:44.1405	6,011550556540479E-001	-2,1682901E-003
02/09/2025 20:03:49.1405	5,890407795071582E-001	-2,1109907E-003
02/09/2025 20:03:54.1405	5,866076139450076E-001	-2,2637893E-003
02/09/2025 20:03:59.1405	5,867314739942540E-001	-2,2064899E-003
02/09/2025 20:04:04.1405	5,867685834884639E-001	-2,0918909E-003
02/09/2025 20:04:09.1405	5,884463204860686E-001	-2,0536913E-003
02/09/2025 20:04:14.1405	5,874098009705540E-001	-2,1873901E-003
02/09/2025 20:04:19.1405	5,905422069191930E-001	-2,2637893E-003
02/09/2025 20:04:24.1405	5,877779903769476E-001	-2,2064899E-003
02/09/2025 20:04:29.1405	5,922114725112912E-001	-2,1682901E-003
02/09/2025 20:04:34.1405	5,833362355709075E-001	-2,2255897E-003
02/09/2025 20:04:39.1405	5,873675249099728E-001	-2,1873901E-003
02/09/2025 20:04:44.1405	5,852739232540130E-001	-2,0536913E-003
02/09/2025 20:04:49.1405	5,822242577671997E-001	-2,1300905E-003
02/09/2025 20:04:54.1405	5,812443096160873E-001	-2,2064899E-003
02/09/2025 20:04:59.1405	5,761570525526984E-001	-2,1109907E-003
02/09/2025 20:05:04.1405	5,870559711813925E-001	-2,1300905E-003
02/09/2025 20:05:09.1405	5,780073805212975E-001	-2,0918909E-003
02/09/2025 20:05:14.1405	5,796823855280877E-001	-2,1491903E-003
02/09/2025 20:05:19.1405	5,730501809835431E-001	-2,1109907E-003
02/09/2025 20:05:24.1405	5,800606213212003E-001	-2,2255897E-003
02/09/2025 20:05:29.1405	5,789256310939770E-001	-2,0536913E-003
02/09/2025 20:05:34.1405	5,741535269498819E-001	-2,1873901E-003
02/09/2025 20:05:39.1405	5,762560600638373E-001	-2,1873901E-003
02/09/2025 20:05:44.1405	5,712003616452215E-001	-1,9963919E-003
02/09/2025 20:05:49.1405	5,692162000894543E-001	-2,0918909E-003
02/09/2025 20:05:54.1405	5,705287288188927E-001	-2,0918909E-003
02/09/2025 20:05:59.1405	5,632345645308494E-001	-2,1300905E-003
02/09/2025 20:06:04.1405	5,654609692454340E-001	-2,2255897E-003
02/09/2025 20:06:09.1405	5,701989410519595E-001	-2,0536913E-003
02/09/2025 20:06:14.1405	5,717193953156468E-001	-2,0536913E-003
02/09/2025 20:06:19.1405	5,661690020084382E-001	-2,1300905E-003
02/09/2025 20:06:24.1405	5,649110720872876E-001	-2,1682901E-003
02/09/2025 20:06:29.1405	5,554692188143728E-001	-2,1109907E-003
02/09/2025 20:06:34.1405	5,666857161998742E-001	-2,0536913E-003
02/09/2025 20:06:39.1405	5,592631246805180E-001	-2,1300905E-003
02/09/2025 20:06:44.1405	5,584471622228619E-001	-2,1300905E-003
02/09/2025 20:06:49.1405	5,637233472704875E-001	-2,0918909E-003
02/09/2025 20:06:54.1405	5,628616819381713E-001	-2,0727911E-003
02/09/2025 20:06:59.1405	5,602288998723015E-001	-2,1491903E-003
02/09/2025 20:07:04.1405	5,605950895428657E-001	-2,1109907E-003
02/09/2025 20:07:09.1405	5,523179734587669E-001	-2,2064899E-003
02/09/2025 20:07:14.1405	5,523104846954325E-001	-2,0727911E-003
02/09/2025 20:07:19.1405	5,599704517722124E-001	-2,1491903E-003
02/09/2025 20:07:24.1405	5,509265072345733E-001	-2,2446895E-003
02/09/2025 20:07:29.1405	5,481862466096876E-001	-2,1109907E-003
02/09/2025 20:07:34.1405	5,538545491695395E-001	-2,2064899E-003
02/09/2025 20:07:39.1405	5,566561854958532E-001	-2,1491903E-003
02/09/2025 20:07:44.1405	5,459621018767353E-001	-2,1491903E-003
02/09/2025 20:07:49.1405	5,466056550264353E-001	-2,1682901E-003
02/09/2025 20:07:54.1405	5,434904155492779E-001	-2,0536913E-003
02/09/2025 20:07:59.1405	5,433974678993216E-001	-2,1109907E-003
02/09/2025 20:08:04.1405	5,463164061665520E-001	-2,1300905E-003
02/09/2025 20:08:09.1405	5,450397941946967E-001	-2,0536913E-003
02/09/2025 20:08:14.1405	5,451821602821347E-001	-1,9772921E-003
02/09/2025 20:08:19.1405	5,467988778591155E-001	-2,0727911E-003
02/09/2025 20:08:24.1405	5,429070448398585E-001	-2,0727911E-003
02/09/2025 20:08:29.1405	5,409200413584703E-001	-2,1109907E-003
02/09/2025 20:08:34.1405	5,409293685436243E-001	-2,0727911E-003
02/09/2025 20:08:39.1405	5,400306184768660E-001	-2,0536913E-003
02/09/2025 20:08:44.1405	5,396870456337926E-001	-2,2064899E-003
02/09/2025 20:08:49.1405	5,326750779628755E-001	-2,1109907E-003
02/09/2025 20:08:54.1405	5,371760007023809E-001	-2,0918909E-003
02/09/2025 20:08:59.1405	5,407347788333885E-001	-2,0727911E-003
02/09/2025 20:09:04.1405	5,339475889444349E-001	-2,0536913E-003
02/09/2025 20:09:09.1405	5,377950249791130E-001	-2,1682901E-003
02/09/2025 20:09:14.1405	5,348857704281804E-001	-2,1491903E-003
02/09/2025 20:09:19.1405	5,380224986314772E-001	-2,1300905E-003
02/09/2025 20:09:24.1405	5,326995924293989E-001	-2,0154917E-003
02/09/2025 20:09:29.1405	5,261896198391915E-001	-2,1109907E-003
02/09/2025 20:09:34.1405	5,335792276620865E-001	-2,1873901E-003
02/09/2025 20:09:39.1405	5,349707203507403E-001	-2,1300905E-003
02/09/2025 20:09:44.1405	5,339406365871415E-001	-2,0536913E-003
02/09/2025 20:09:49.1405	5,274376151561739E-001	-2,1300905E-003
02/09/2025 20:09:54.1405	5,261595005929465E-001	-2,1109907E-003
02/09/2025 20:09:59.1405	5,270846296429639E-001	-2,0345915E-003
02/09/2025 20:10:04.1405	5,265888697624197E-001	-2,1491903E-003
02/09/2025 20:10:09.1405	5,271957953333857E-001	-2,0727911E-003
02/09/2025 20:10:14.1405	5,242430119156829E-001	-2,0727911E-003
02/09/2025 20:10:19.1405	5,226003968000406E-001	-2,1109907E-003
02/09/2025 20:10:24.1405	5,160737850785235E-001	-2,1491903E-003
02/09/2025 20:10:29.1405	5,269091030418869E-001	-2,0727911E-003
02/09/2025 20:10:34.1405	5,159070512413977E-001	-2,1491903E-003
02/09/2025 20:10:39.1405	5,175095883846277E-001	-2,0345915E-003
02/09/2025 20:10:44.1404	5,186998703181747E-001	-2,0727911E-003
02/09/2025 20:10:49.1404	5,210412546157830E-001	-2,0918909E-003
02/09/2025 20:10:54.1404	5,180383100450037E-001	-2,0727911E-003
02/09/2025 20:10:59.1404	5,248290406167504E-001	-2,1491903E-003
02/09/2025 20:11:04.1404	5,154885020196438E-001	-2,1682901E-003
02/09/2025 20:11:09.1404	5,141253861844532E-001	-2,1300905E-003
02/09/2025 20:11:14.1404	5,187577064394948E-001	-2,0345915E-003
02/09/2025 20:11:19.1404	5,134886629462239E-001	-2,1109907E-003
02/09/2025 20:11:24.1404	5,116022808074951E-001	-2,1300905E-003
02/09/2025 20:11:29.1404	5,067591287493691E-001	-2,0918909E-003
02/09/2025 20:11:34.1404	5,184527098000045E-001	-2,0918909E-003
02/09/2025 20:11:39.1404	5,122029249966142E-001	-2,0727911E-003
02/09/2025 20:11:44.1404	5,116393187105643E-001	-2,2637893E-003
02/09/2025 20:11:49.1404	5,051263782680024E-001	-2,2637893E-003
02/09/2025 20:11:54.1404	5,061255875408630E-001	-2,2064899E-003
02/09/2025 20:11:59.1404	5,080796562731260E-001	-2,0536913E-003
02/09/2025 20:12:04.1404	5,032673293471337E-001	-2,1109907E-003
02/09/2025 20:12:09.1404	5,021750488340846E-001	-2,0727911E-003
02/09/2025 20:12:14.1404	5,107775891304016E-001	-2,1300905E-003
02/09/2025 20:12:19.1404	4,987742165029037E-001	-2,1109907E-003
02/09/2025 20:12:24.1404	5,023136888861650E-001	-2,1682901E-003
02/09/2025 20:12:29.1404	5,074106316268443E-001	-2,0918909E-003
02/09/2025 20:12:34.1404	5,024274632036683E-001	-2,0536913E-003
02/09/2025 20:12:39.1404	5,015888129115105E-001	-2,1873901E-003
02/09/2025 20:12:44.1404	5,034348316669464E-001	-2,1491903E-003
02/09/2025 20:12:49.1404	5,042773713588709E-001	-2,1682901E-003
02/09/2025 20:12:54.1404	4,993454942405213E-001	-2,1682901E-003
02/09/2025 20:12:59.1404	4,998801290571691E-001	-2,1300905E-003
02/09/2025 20:13:04.1404	5,050883382499212E-001	-2,1300905E-003
02/09/2025 20:13:09.1404	4,955146745324130E-001	-2,1873901E-003
02/09/2025 20:13:14.1404	5,067851635992522E-001	-2,0727911E-003
02/09/2025 20:13:19.1404	5,046148347079749E-001	-2,2255897E-003
02/09/2025 20:13:24.1404	4,980480551481241E-001	-2,1300905E-003
02/09/2025 20:13:29.1404	4,962617066442956E-001	-2,1300905E-003
02/09/2025 20:13:34.1404	4,915221892833710E-001	-2,2064899E-003
02/09/2025 20:13:39.1404	4,956219725430011E-001	-2,1109907E-003
02/09/2025 20:13:44.1404	4,910336328923695E-001	-2,1682901E-003
02/09/2025 20:13:49.1404	4,920515576243396E-001	-2,1682901E-003
02/09/2025 20:13:54.1404	4,791536530256266E-001	-2,1300905E-003
02/09/2025 20:13:59.1404	4,874632116496560E-001	-2,2064899E-003
02/09/2025 20:14:04.1404	4,854376556694509E-001	-2,1300905E-003
02/09/2025 20:14:09.1404	4,916482409536833E-001	-2,0918909E-003
02/09/2025 20:14:14.1404	4,856608895599841E-001	-2,0918909E-003
02/09/2025 20:14:19.1404	4,845796930611126E-001	-2,0727911E-003
02/09/2025 20:14:24.1404	4,866220835804942E-001	-2,0536913E-003
02/09/2025 20:14:29.1404	4,827569859027854E-001	-2,1682901E-003
02/09/2025 20:14:34.1404	4,750221011519411E-001	-2,1682901E-003
02/09/2025 20:14:39.1404	4,776532726407048E-001	-2,1682901E-003
02/09/2025 20:14:44.1404	4,793755571126939E-001	-2,1873901E-003
02/09/2025 20:14:49.1404	4,822588598966597E-001	-2,0727911E-003
02/09/2025 20:14:54.1404	4,791110970020291E-001	-2,1873901E-003
02/09/2025 20:14:59.1404	4,796776377320287E-001	-1,9963919E-003
02/09/2025 20:15:04.1404	4,888784003078936E-001	-2,1109907E-003
02/09/2025 20:15:09.1404	4,718318071186536E-001	-2,2064899E-003
02/09/2025 20:15:14.1404	4,761988715767842E-001	-2,0727911E-003
02/09/2025 20:15:19.1404	4,861344331800925E-001	-2,1109907E-003
02/09/2025 20:15:24.1404	4,756395968079552E-001	-2,1109907E-003
02/09/2025 20:15:29.1404	4,744660175263880E-001	-2,1491903E-003
02/09/2025 20:15:34.1404	4,789130741178984E-001	-2,2064899E-003
02/09/2025 20:15:39.1404	4,867505692899228E-001	-2,0727911E-003
02/09/2025 20:15:44.1404	4,774272819995868E-001	-2,1491903E-003
02/09/2025 20:15:49.1404	4,685651719987387E-001	-2,1491903E-003
02/09/2025 20:15:54.1404	4,728696077466010E-001	-2,1873901E-003
02/09/2025 20:15:59.1404	4,643411323010921E-001	-2,0918909E-003
02/09/2025 20:16:04.1404	4,638922361671920E-001	-2,0536913E-003
02/09/2025 20:16:09.1404	4,708507868468761E-001	-2,1873901E-003
02/09/2025 20:16:14.1404	4,775642828941340E-001	-2,0727911E-003
02/09/2025 20:16:19.1404	4,642576449573035E-001	-2,1682901E-003
02/09/2025 20:16:24.1404	4,668734462678437E-001	-2,1109907E-003
02/09/2025 20:16:29.1404	4,652988750457752E-001	-2,1491903E-003
02/09/2025 20:16:34.1404	4,710608481407164E-001	-2,1109907E-003
02/09/2025 20:16:39.1404	4,616183750510210E-001	-2,0918909E-003
02/09/2025 20:16:44.1404	4,634311396121973E-001	-2,0727911E-003
02/09/2025 20:16:49.1404	4,588495007634155E-001	-2,1682901E-003
02/09/2025 20:16:54.1404	4,671778105437754E-001	-2,0918909E-003
02/09/2025 20:16:59.1404	4,689392613470549E-001	-2,1109907E-003
02/09/2025 20:17:04.1404	4,553054599225519E-001	-2,0918909E-003
02/09/2025 20:17:09.1404	4,559612698256963E-001	-2,1300905E-003
02/09/2025 20:17:14.1404	4,590009509563444E-001	-2,1491903E-003
02/09/2025 20:17:19.1404	4,544759999930857E-001	-2,1109907E-003
02/09/2025 20:17:24.1404	4,472262639284130E-001	-2,1109907E-003
02/09/2025 20:17:29.1404	4,533828786492348E-001	-2,0918909E-003
02/09/2025 20:17:34.1404	4,524662080347532E-001	-2,1491903E-003
02/09/2025 20:17:39.1404	4,431540893971899E-001	-2,1491903E-003
02/09/2025 20:17:44.1404	4,536970008134840E-001	-2,1300905E-003
02/09/2025 20:17:49.1404	4,522604497909546E-001	-2,1300905E-003
02/09/2025 20:17:54.1404	4,492764631927013E-001	-2,0727911E-003
02/09/2025 20:17:59.1404	4,527152442812918E-001	-2,1300905E-003
02/09/2025 20:18:04.1404	4,526330989420408E-001	-2,1491903E-003
02/09/2025 20:18:09.1404	4,400604422330847E-001	-2,0536913E-003
02/09/2025 20:18:14.1404	4,412487640082823E-001	-2,1491903E-003
02/09/2025 20:18:19.1404	4,395203959882257E-001	-2,0918909E-003
02/09/2025 20:18:24.1404	4,333974572181702E-001	-2,1300905E-003
02/09/2025 20:18:29.1404	4,454422755956635E-001	-2,1300905E-003
02/09/2025 20:18:34.1404	4,452323786079884E-001	-2,0727911E-003
02/09/2025 20:18:39.1404	4,370547457039358E-001	-2,1109907E-003
02/09/2025 20:18:44.1404	4,359937236905096E-001	-2,1300905E-003
02/09/2025 20:18:49.1404	4,346589399814604E-001	-2,1300905E-003
02/09/2025 20:18:54.1404	4,308137181043605E-001	-2,1682901E-003
02/09/2025 20:18:59.1404	4,421127494871619E-001	-2,1300905E-003
02/09/2025 20:19:04.1404	4,308359601497649E-001	-2,0918909E-003
02/09/2025 20:19:09.1404	4,315424501955509E-001	-2,1682901E-003
02/09/2025 20:19:14.1404	4,313266409516325E-001	-2,0536913E-003
02/09/2025 20:19:19.1404	4,284124488949770E-001	-2,0918909E-003
02/09/2025 20:19:24.1404	4,347090895593162E-001	-2,0918909E-003
02/09/2025 20:19:29.1404	4,325300905168055E-001	-2,2255897E-003
02/09/2025 20:19:34.1404	4,294233641803262E-001	-2,0918909E-003
02/09/2025 20:19:39.1404	4,289780682742599E-001	-1,9963919E-003
02/09/2025 20:19:44.1404	4,340943672239781E-001	-2,1300905E-003
02/09/2025 20:19:49.1404	4,283143218338488E-001	-2,2064899E-003
02/09/2025 20:19:54.1404	4,206772186279295E-001	-2,0918909E-003
02/09/2025 20:19:59.1404	4,205531338930131E-001	-2,1873901E-003
02/09/2025 20:20:04.1404	4,355099442720412E-001	-2,0727911E-003
02/09/2025 20:20:09.1404	4,231111030936239E-001	-2,0536913E-003
02/09/2025 20:20:14.1404	4,313240432560441E-001	-2,1109907E-003
02/09/2025 20:20:19.1404	4,311456534147258E-001	-2,1491903E-003
02/09/2025 20:20:24.1404	4,244937560081481E-001	-2,1682901E-003
02/09/2025 20:20:29.1404	4,327418444216242E-001	-2,0918909E-003
02/09/2025 20:20:34.1404	4,326974576354026E-001	-2,0918909E-003
02/09/2025 20:20:39.1404	4,280783625423901E-001	-2,1300905E-003
02/09/2025 20:20:44.1404	4,274397759020327E-001	-2,2064899E-003
02/09/2025 20:20:49.1404	4,238447556197643E-001	-2,2064899E-003
02/09/2025 20:20:54.1404	4,294697447001923E-001	-2,3019889E-003
02/09/2025 20:20:59.1404	4,288803134798993E-001	-2,2446895E-003
02/09/2025 20:21:04.1404	4,312581542611111E-001	-2,1300905E-003
02/09/2025 20:21:09.1404	4,216742789566517E-001	-2,1682901E-003
02/09/2025 20:21:14.1404	4,222799564123152E-001	-2,1682901E-003
02/09/2025 20:21:19.1404	4,275091224551186E-001	-2,0727911E-003
02/09/2025 20:21:24.1404	4,318125380456443E-001	-2,1873901E-003
02/09/2025 20:21:29.1404	4,132427712678899E-001	-2,2255897E-003
02/09/2025 20:21:34.1404	4,161563991606219E-001	-2,1491903E-003
02/09/2025 20:21:39.1404	4,219366778075697E-001	-2,2255897E-003
02/09/2025 20:21:44.1404	4,150448084533203E-001	-2,2064899E-003
02/09/2025 20:21:49.1404	4,148864591956132E-001	-2,1300905E-003
02/09/2025 20:21:54.1404	4,160924074590202E-001	-2,1682901E-003
02/09/2025 20:21:59.1404	4,151882735311965E-001	-2,0154917E-003
02/09/2025 20:22:04.1404	4,114107224881647E-001	-2,0345915E-003
02/09/2025 20:22:09.1404	4,164975155472739E-001	-2,0727911E-003
02/09/2025 20:22:14.1404	4,102332992851725E-001	-2,1300905E-003
02/09/2025 20:22:19.1404	4,113423031985750E-001	-2,1109907E-003
02/09/2025 20:22:24.1404	4,075492236733433E-001	-2,1491903E-003
02/09/2025 20:22:29.1404	4,060947255373000E-001	-2,0727911E-003
02/09/2025 20:22:34.1404	4,059317961573599E-001	-2,0918909E-003
02/09/2025 20:22:39.1404	4,096596954822536E-001	-2,1682901E-003
02/09/2025 20:22:44.1404	4,036260553002357E-001	-2,1491903E-003
02/09/2025 20:22:49.1404	4,057151197552678E-001	-2,1300905E-003
02/09/2025 20:22:54.1404	4,033897014200685E-001	-2,1491903E-003
02/09/2025 20:22:59.1404	3,932536771416664E-001	-2,2064899E-003
02/09/2025 20:23:04.1404	3,962333433270455E-001	-2,0154917E-003
02/09/2025 20:23:09.1404	4,072805984139438E-001	-2,0918909E-003
02/09/2025 20:23:14.1404	4,043079870760438E-001	-2,1109907E-003
02/09/2025 20:23:19.1404	3,947460708558554E-001	-2,1109907E-003
02/09/2025 20:23:24.1404	3,944751625537872E-001	-2,1300905E-003
02/09/2025 20:23:29.1404	4,002982339560983E-001	-2,1109907E-003
02/09/2025 20:23:34.1404	3,942438954234123E-001	-2,0918909E-003
02/09/2025 20:23:39.1404	3,960704527676104E-001	-2,1682901E-003
02/09/2025 20:23:44.1404	4,000347336709495E-001	-2,1109907E-003
02/09/2025 20:23:49.1404	4,034427112758159E-001	-2,1300905E-003
02/09/2025 20:23:54.1404	3,983688412487503E-001	-2,1109907E-003
02/09/2025 20:23:59.1404	3,899149805486202E-001	-2,1109907E-003
02/09/2025 20:24:04.1404	3,919876749992368E-001	-2,1109907E-003
02/09/2025 20:24:09.1404	3,881592867612831E-001	-2,1300905E-003
02/09/2025 20:24:14.1404	4,000319233179092E-001	-2,1873901E-003
02/09/2025 20:24:19.1404	3,904915845394124E-001	-2,1109907E-003
02/09/2025 20:24:24.1404	3,903561485111711E-001	-2,2064899E-003
02/09/2025 20:24:29.1404	3,930880167961117E-001	-2,2637893E-003
02/09/2025 20:24:34.1404	3,861317842900753E-001	-2,2064899E-003
02/09/2025 20:24:39.1404	3,926621603131295E-001	-2,0536913E-003
02/09/2025 20:24:44.1404	3,859658862948416E-001	-2,1109907E-003
02/09/2025 20:24:49.1404	3,841713738501067E-001	-2,3210887E-003
02/09/2025 20:24:54.1404	3,852143808424469E-001	-2,0918909E-003
02/09/2025 20:24:59.1404	3,869650657057762E-001	-2,0918909E-003
02/09/2025 20:25:04.1404	3,868076481401921E-001	-2,1109907E-003
02/09/2025 20:25:09.1404	3,783030168950559E-001	-2,2446895E-003
02/09/2025 20:25:14.1404	3,897527380049226E-001	-1,9963919E-003
02/09/2025 20:25:19.1404	3,881218386173249E-001	-2,2255897E-003
02/09/2025 20:25:24.1404	3,897707137525082E-001	-2,2446895E-003
02/09/2025 20:25:29.1404	3,823362810969346E-001	-2,1682901E-003
02/09/2025 20:25:34.1404	3,782754611492152E-001	-2,1109907E-003
02/09/2025 20:25:39.1404	3,893851378560065E-001	-2,2255897E-003
02/09/2025 20:25:44.1404	3,798569404721259E-001	-1,9963919E-003
02/09/2025 20:25:49.1404	3,820098928332329E-001	-2,2064899E-003
02/09/2025 20:25:54.1404	3,857988360106943E-001	-2,1682901E-003
02/09/2025 20:25:59.1404	3,843457772314545E-001	-2,1873901E-003
02/09/2025 20:26:04.1404	3,797862612724296E-001	-2,1300905E-003
02/09/2025 20:26:09.1404	3,830054724335670E-001	-2,1682901E-003
02/09/2025 20:26:14.1404	3,810117366075509E-001	-2,1491903E-003
02/09/2025 20:26:19.1404	3,752986401975154E-001	-2,0154917E-003
02/09/2025 20:26:24.1404	3,825468221426007E-001	-2,2255897E-003
02/09/2025 20:26:29.1404	3,832628794014452E-001	-2,2446895E-003
02/09/2025 20:26:34.1404	3,737929501235482E-001	-2,2446895E-003
02/09/2025 20:26:39.1404	3,851540804743756E-001	-2,0918909E-003
02/09/2025 20:26:44.1404	3,814505360186098E-001	-2,1873901E-003
02/09/2025 20:26:49.1404	3,826975784301756E-001	-2,1682901E-003
02/09/2025 20:26:54.1404	3,738880662739277E-001	-2,0918909E-003
02/09/2025 20:26:59.1404	3,713049878835678E-001	-2,0154917E-003
02/09/2025 20:27:04.1404	3,665618313074112E-001	-1,9963919E-003
02/09/2025 20:27:09.1404	3,771770959854122E-001	-2,0918909E-003
02/09/2025 20:27:14.1404	3,771865058779716E-001	-2,1682901E-003
02/09/2025 20:27:19.1404	3,734304376721380E-001	-2,1491903E-003
02/09/2025 20:27:24.1404	3,688883201301096E-001	-2,2255897E-003
02/09/2025 20:27:29.1404	3,758486494898796E-001	-2,1682901E-003
02/09/2025 20:27:34.1404	3,648466270148747E-001	-2,2255897E-003
02/09/2025 20:27:39.1404	3,735518659651280E-001	-2,0918909E-003
02/09/2025 20:27:44.1404	3,676262008428566E-001	-2,0918909E-003
02/09/2025 20:27:49.1404	3,727657893002023E-001	-2,1873901E-003
02/09/2025 20:27:54.1404	3,657909324645996E-001	-2,1109907E-003
02/09/2025 20:27:59.1404	3,627934780061244E-001	-2,1682901E-003
02/09/2025 20:28:04.1404	3,644328048765657E-001	-2,0918909E-003
02/09/2025 20:28:09.1404	3,725303292632098E-001	-2,1682901E-003
02/09/2025 20:28:14.1404	3,728488639533518E-001	-1,9963919E-003
02/09/2025 20:28:19.1404	3,611070312023159E-001	-2,1682901E-003
02/09/2025 20:28:24.1404	3,625381249308584E-001	-2,1109907E-003
02/09/2025 20:28:29.1404	3,574070585608480E-001	-2,1300905E-003
02/09/2025 20:28:34.1404	3,668705460548400E-001	-2,0918909E-003
02/09/2025 20:28:39.1404	3,593879961490629E-001	-2,1109907E-003
02/09/2025 20:28:44.1404	3,605973975300789E-001	-2,1873901E-003
02/09/2025 20:28:49.1404	3,666912292659281E-001	-2,1491903E-003
02/09/2025 20:28:54.1404	3,605000932931897E-001	-2,0536913E-003
02/09/2025 20:28:59.1404	3,541334184944631E-001	-2,1491903E-003
02/09/2025 20:29:04.1404	3,594563501358028E-001	-2,1873901E-003
02/09/2025 20:29:09.1404	3,589223876833914E-001	-2,2255897E-003
02/09/2025 20:29:14.1404	3,474235601425169E-001	-2,1491903E-003
02/09/2025 20:29:19.1404	3,544603820323942E-001	-2,0727911E-003
02/09/2025 20:29:24.1404	3,573190771937371E-001	-2,1109907E-003
02/09/2025 20:29:29.1404	3,594191183447828E-001	-2,0536913E-003
02/09/2025 20:29:34.1404	3,607605817377557E-001	-2,1300905E-003
02/09/2025 20:29:39.1404	3,575271460115905E-001	-2,1109907E-003
02/09/2025 20:29:44.1404	3,549236269712450E-001	-2,1491903E-003
02/09/2025 20:29:49.1404	3,586122626304626E-001	-2,2255897E-003
02/09/2025 20:29:54.1404	3,605328801631927E-001	-2,0345915E-003
02/09/2025 20:29:59.1404	3,500883927762506E-001	-2,1491903E-003
02/09/2025 20:30:03.0926	3,553931192361715E-001	-2,1491903E-003