File: data/phase_2a/Sergey/3/3.3/02 polarisation/SN50_C7D1_lr 0,1MFeCN6_in_1M_KCl_3306mL_symmetric_balanced_4_point_PEIS_10mV_02_CP_C16.txt
time/s	I/mA	<Ewe/V>
02/09/2025 18:08:21.2490	4,1594426E-003	-3,5613319E-003
02/09/2025 18:08:23.5490	7,3412773E-003	-3,5471825E-003
02/09/2025 18:08:25.8490	1,3704944E-002	-3,5455020E-003
02/09/2025 18:08:28.1490	1,6139771E-003	-3,5519195E-003
02/09/2025 18:08:30.4490	6,0685435E-003	-3,5535239E-003
02/09/2025 18:08:32.7490	1,0523110E-002	-3,5597503E-003
02/09/2025 18:08:35.0490	2,8867100E-003	-3,5534475E-003
02/09/2025 18:08:37.3490	1,0523110E-002	-3,5590245E-003
02/09/2025 18:08:39.6490	1,1795843E-002	-3,5629973E-003
02/09/2025 18:08:41.9490	7,3412773E-003	-3,5613165E-003
02/09/2025 18:08:44.2490	9,2503773E-003	-3,5578404E-003
02/09/2025 18:08:46.5490	1,4977678E-002	-3,5657478E-003
02/09/2025 18:08:48.8490	8,6140092E-003	-3,5590245E-003
02/09/2025 18:08:51.1490	1,1159477E-002	-3,5604381E-003
02/09/2025 18:08:53.4490	1,0523110E-002	-3,5703317E-003
02/09/2025 18:08:55.7490	4,7958097E-003	-3,5685746E-003
02/09/2025 18:08:58.0490	4,1594426E-003	-3,5647927E-003
02/09/2025 18:09:00.3490	9,2503773E-003	-3,5640288E-003
02/09/2025 18:09:02.6490	1,1159477E-002	-3,5702935E-003
02/09/2025 18:09:04.9490	1,0523110E-002	-3,5662060E-003
02/09/2025 18:09:07.2490	3,5230771E-003	-3,5685364E-003
02/09/2025 18:09:09.5490	8,6140092E-003	-3,5737315E-003
02/09/2025 18:09:11.8490	1,1795843E-002	-3,5775132E-003
02/09/2025 18:09:14.1490	7,9776440E-003	-3,5636085E-003
02/09/2025 18:09:16.4490	1,6139771E-003	-3,5639522E-003
02/09/2025 18:09:18.7490	5,4321769E-003	-3,5696824E-003
02/09/2025 18:09:21.0490	6,7049102E-003	-3,5655184E-003
02/09/2025 18:09:23.3490	1,3704944E-002	-3,5634558E-003
02/09/2025 18:09:25.6490	1,1159477E-002	-3,5745339E-003
02/09/2025 18:09:27.9490	1,0523110E-002	-3,5704081E-003
02/09/2025 18:09:30.2490	9,8867435E-003	-3,5689564E-003
02/09/2025 18:09:32.5490	5,4321769E-003	-3,5733494E-003
02/09/2025 18:09:34.8490	1,0523110E-002	-3,5740372E-003
02/09/2025 18:09:37.1490	9,2503773E-003	-3,5698733E-003
02/09/2025 18:09:39.4490	9,8867435E-003	-3,5690712E-003
02/09/2025 18:09:41.7490	9,8867435E-003	-3,5763672E-003
02/09/2025 18:09:44.0490	9,2503773E-003	-3,5643727E-003
02/09/2025 18:09:46.3490	7,3412773E-003	-3,5728528E-003
02/09/2025 18:09:48.6490	7,9776440E-003	-3,5762528E-003
02/09/2025 18:09:50.9490	6,7049102E-003	-3,5712102E-003
02/09/2025 18:09:53.2490	6,7049102E-003	-3,5651745E-003
02/09/2025 18:09:55.5490	4,7958097E-003	-3,5759853E-003
02/09/2025 18:09:57.8490	1,0523110E-002	-3,5747630E-003
02/09/2025 18:10:00.1490	1,1795843E-002	-3,5676577E-003
02/09/2025 18:10:02.4490	9,8867435E-003	-3,5693767E-003
02/09/2025 18:10:04.7490	7,3412773E-003	-3,5762528E-003
02/09/2025 18:10:07.0490	8,6140092E-003	-3,5703317E-003
02/09/2025 18:10:09.3490	2,2503431E-003	-3,5667792E-003
02/09/2025 18:10:11.6490	1,2432210E-002	-3,5733494E-003
02/09/2025 18:10:13.9490	9,2503773E-003	-3,5708284E-003
02/09/2025 18:10:16.2490	6,7049102E-003	-3,5751830E-003
02/09/2025 18:10:18.5490	6,7049102E-003	-3,5743809E-003
02/09/2025 18:10:20.8490	6,7049102E-003	-3,5751830E-003
02/09/2025 18:10:23.1490	6,7049102E-003	-3,5652893E-003
02/09/2025 18:10:25.4490	5,4321769E-003	-3,5664735E-003
02/09/2025 18:10:27.7490	4,1594426E-003	-3,5771313E-003
02/09/2025 18:10:30.0490	5,4321769E-003	-3,5641815E-003
02/09/2025 18:10:32.3490	2,8867100E-003	-3,5669319E-003
02/09/2025 18:10:34.6490	6,7049102E-003	-3,5783153E-003
02/09/2025 18:10:36.9490	7,9776440E-003	-3,5683454E-003
02/09/2025 18:10:39.2490	4,1594426E-003	-3,5663589E-003
02/09/2025 18:10:41.5490	7,9776440E-003	-3,5731585E-003
02/09/2025 18:10:43.8490	1,1159477E-002	-3,5667792E-003
02/09/2025 18:10:46.1490	6,7049102E-003	-3,5704081E-003
02/09/2025 18:10:48.4490	4,1594426E-003	-3,5709047E-003
02/09/2025 18:10:50.7490	8,6140092E-003	-3,5671610E-003
02/09/2025 18:10:53.0490	2,8867100E-003	-3,5688421E-003
02/09/2025 18:10:55.3490	1,6139771E-003	-3,5733494E-003
02/09/2025 18:10:57.6490	9,8867435E-003	-3,5720125E-003
02/09/2025 18:10:59.9490	2,8867100E-003	-3,5653659E-003
02/09/2025 18:11:02.2490	1,4977678E-002	-3,5715541E-003
02/09/2025 18:11:04.5490	8,6140092E-003	-3,5764438E-003
02/09/2025 18:11:06.8490	1,4977678E-002	-3,5676197E-003
02/09/2025 18:11:09.1490	9,2503773E-003	-3,5689182E-003
02/09/2025 18:11:11.4490	6,7049102E-003	-3,5697969E-003
02/09/2025 18:11:13.7490	7,3412773E-003	-3,5644108E-003
02/09/2025 18:11:16.0490	1,1159477E-002	-3,5769404E-003
02/09/2025 18:11:18.3490	1,0523110E-002	-3,5741134E-003
02/09/2025 18:11:20.6490	9,2503773E-003	-3,5769786E-003
02/09/2025 18:11:22.9490	5,4321769E-003	-3,5681925E-003
02/09/2025 18:11:25.2490	9,2503773E-003	-3,5768638E-003
02/09/2025 18:11:27.5490	9,2503773E-003	-3,5790412E-003
02/09/2025 18:11:29.8490	5,4321769E-003	-3,5720887E-003
02/09/2025 18:11:32.1490	6,0685435E-003	-3,5709429E-003
02/09/2025 18:11:34.4490	2,8867100E-003	-3,5746482E-003
02/09/2025 18:11:36.7490	1,1159477E-002	-3,5722035E-003
02/09/2025 18:11:39.0490	9,2503773E-003	-3,5683454E-003
02/09/2025 18:11:41.3490	1,2432210E-002	-3,5731967E-003
02/09/2025 18:11:43.6490	3,5230771E-003	-3,5724710E-003
02/09/2025 18:11:45.9490	6,7049102E-003	-3,5677340E-003
02/09/2025 18:11:48.2490	1,1159477E-002	-3,5707520E-003
02/09/2025 18:11:50.5490	7,9776440E-003	-3,5778570E-003
02/09/2025 18:11:52.8490	7,3412773E-003	-3,5649075E-003
02/09/2025 18:11:55.1490	1,1159477E-002	-3,5727383E-003
02/09/2025 18:11:57.4490	7,9776440E-003	-3,5697205E-003
02/09/2025 18:11:59.7490	9,2503773E-003	-3,5700644E-003
02/09/2025 18:12:02.0490	6,7049102E-003	-3,5700263E-003
02/09/2025 18:12:04.3490	6,7049102E-003	-3,5702172E-003
02/09/2025 18:12:06.6490	4,7958097E-003	-3,5723562E-003
02/09/2025 18:12:08.9490	9,8867435E-003	-3,5634558E-003
02/09/2025 18:12:11.2490	5,4321769E-003	-3,5724710E-003
02/09/2025 18:12:13.5490	4,1594426E-003	-3,5722035E-003
02/09/2025 18:12:15.8490	1,6250411E-002	-3,5615840E-003
02/09/2025 18:12:18.1490	6,7049102E-003	-3,5668174E-003
02/09/2025 18:12:20.4490	6,7049102E-003	-3,5770165E-003
02/09/2025 18:12:22.7490	9,8867435E-003	-3,5717834E-003
02/09/2025 18:12:25.0490	9,8867435E-003	-3,5636085E-003
02/09/2025 18:12:27.3490	3,4124311E-004	-3,5742281E-003
02/09/2025 18:12:29.6490	7,3412773E-003	-3,5694148E-003
02/09/2025 18:12:31.9490	1,0523110E-002	-3,5653275E-003
02/09/2025 18:12:34.2490	7,3412773E-003	-3,5729676E-003
02/09/2025 18:12:36.5490	1,3068578E-002	-3,5732731E-003
02/09/2025 18:12:38.8490	1,2432210E-002	-3,5675813E-003
02/09/2025 18:12:41.1490	2,8867100E-003	-3,5705990E-003
02/09/2025 18:12:43.4490	9,8867435E-003	-3,5718596E-003
02/09/2025 18:12:45.7490	1,6139771E-003	-3,5697587E-003
02/09/2025 18:12:48.0490	1,0523110E-002	-3,5679250E-003
02/09/2025 18:12:50.3490	7,3412773E-003	-3,5754123E-003
02/09/2025 18:12:52.6490	5,4321769E-003	-3,5757562E-003
02/09/2025 18:12:54.9490	1,0523110E-002	-3,5722416E-003
02/09/2025 18:12:57.2490	5,4321769E-003	-3,5763672E-003
02/09/2025 18:12:59.5490	9,2503773E-003	-3,5764819E-003
02/09/2025 18:13:01.8490	7,9776440E-003	-3,5676959E-003
02/09/2025 18:13:04.1490	7,3412773E-003	-3,5722416E-003
02/09/2025 18:13:06.4490	9,8867435E-003	-3,5709811E-003
02/09/2025 18:13:08.7490	4,7958097E-003	-3,5716686E-003
02/09/2025 18:13:11.0490	6,7049102E-003	-3,5704463E-003
02/09/2025 18:13:13.3490	2,2503431E-003	-3,5697587E-003
02/09/2025 18:13:15.6490	1,4977678E-002	-3,5679634E-003
02/09/2025 18:13:17.9490	9,8867435E-003	-3,5701406E-003
02/09/2025 18:13:20.2490	7,3412773E-003	-3,5743427E-003
02/09/2025 18:13:22.5490	7,9776440E-003	-3,5728149E-003
02/09/2025 18:13:24.8490	6,0685435E-003	-3,5712868E-003
02/09/2025 18:13:27.1490	5,4321769E-003	-3,5731201E-003
02/09/2025 18:13:29.4490	7,3412773E-003	-3,5722801E-003
02/09/2025 18:13:31.7490	7,3412773E-003	-3,5677725E-003
02/09/2025 18:13:34.0490	7,3412773E-003	-3,5678488E-003
02/09/2025 18:13:36.3490	3,4124311E-004	-3,5786591E-003
02/09/2025 18:13:38.6490	9,2503773E-003	-3,5675049E-003
02/09/2025 18:13:40.9490	1,0523110E-002	-3,5718596E-003
02/09/2025 18:13:43.2490	6,0685435E-003	-3,5782009E-003
02/09/2025 18:13:45.5490	8,6140092E-003	-3,5731585E-003
02/09/2025 18:13:47.8490	8,6140092E-003	-3,5702935E-003
02/09/2025 18:13:50.1490	2,8867100E-003	-3,5809893E-003
02/09/2025 18:13:52.4490	1,0523110E-002	-3,5784682E-003
02/09/2025 18:13:54.7490	8,6140092E-003	-3,5746864E-003
02/09/2025 18:13:57.0490	7,9776440E-003	-3,5799199E-003
02/09/2025 18:13:59.3490	9,2503773E-003	-3,5762908E-003
02/09/2025 18:14:01.6490	2,2503431E-003	-3,5745339E-003
02/09/2025 18:14:03.9490	7,9776440E-003	-3,5733494E-003
02/09/2025 18:14:06.2490	8,6140092E-003	-3,5756414E-003
02/09/2025 18:14:08.5490	1,3068578E-002	-3,5749539E-003
02/09/2025 18:14:10.8490	1,0523110E-002	-3,5733494E-003
02/09/2025 18:14:13.1490	9,8867435E-003	-3,5780862E-003
02/09/2025 18:14:15.4490	9,2503773E-003	-3,5762908E-003
02/09/2025 18:14:17.7490	5,4321769E-003	-3,5727001E-003
02/09/2025 18:14:20.0490	5,4321769E-003	-3,5791558E-003
02/09/2025 18:14:22.3490	6,7049102E-003	-3,5773604E-003
02/09/2025 18:14:24.6490	5,4321769E-003	-3,5712102E-003
02/09/2025 18:14:26.9490	6,0685435E-003	-3,5762908E-003
02/09/2025 18:14:29.2490	1,1795843E-002	-3,5778189E-003
02/09/2025 18:14:31.5490	4,7958097E-003	-3,5746482E-003
02/09/2025 18:14:33.8490	1,1795843E-002	-3,5718596E-003
02/09/2025 18:14:36.1490	1,0523110E-002	-3,5758705E-003
02/09/2025 18:14:38.4490	8,6140092E-003	-3,5797290E-003
02/09/2025 18:14:40.7490	6,0685435E-003	-3,5759090E-003
02/09/2025 18:14:43.0490	1,2432210E-002	-3,5718977E-003
02/09/2025 18:14:45.3490	1,1159477E-002	-3,5764053E-003
02/09/2025 18:14:47.6490	1,1159477E-002	-3,5770929E-003
02/09/2025 18:14:49.9490	6,7049102E-003	-3,5760999E-003
02/09/2025 18:14:52.2490	6,0685435E-003	-3,5794994E-003
02/09/2025 18:14:54.5490	5,4321769E-003	-3,5743427E-003
02/09/2025 18:14:56.8490	5,4321769E-003	-3,5706372E-003
02/09/2025 18:14:59.1490	7,9776440E-003	-3,5788885E-003
02/09/2025 18:15:01.4490	1,1159477E-002	-3,5762528E-003
02/09/2025 18:15:03.7490	1,1159477E-002	-3,5661678E-003
02/09/2025 18:15:06.0490	4,7958097E-003	-3,5726619E-003
02/09/2025 18:15:08.3490	6,0685435E-003	-3,5739224E-003
02/09/2025 18:15:10.6490	9,8867435E-003	-3,5737315E-003
02/09/2025 18:15:12.9490	1,4341311E-002	-3,5748391E-003
02/09/2025 18:15:15.2490	7,9776440E-003	-3,5757562E-003
02/09/2025 18:15:17.5490	5,4321769E-003	-3,5786210E-003
02/09/2025 18:15:19.8490	9,2503773E-003	-3,5678488E-003
02/09/2025 18:15:22.1490	9,2503773E-003	-3,5713629E-003
02/09/2025 18:15:24.4490	9,8867435E-003	-3,5759853E-003
02/09/2025 18:15:26.7490	9,8867435E-003	-3,5705990E-003
02/09/2025 18:15:29.0490	2,8867100E-003	-3,5720887E-003
02/09/2025 18:15:31.3490	7,3412773E-003	-3,5778189E-003
02/09/2025 18:15:33.6490	4,1594426E-003	-3,5785446E-003
02/09/2025 18:15:35.9490	9,2503773E-003	-3,5699878E-003
02/09/2025 18:15:38.2490	5,4321769E-003	-3,5807984E-003
02/09/2025 18:15:40.5490	9,2503773E-003	-3,5764819E-003
02/09/2025 18:15:42.8490	7,3412773E-003	-3,5781628E-003
02/09/2025 18:15:45.1490	4,1594426E-003	-3,5735024E-003
02/09/2025 18:15:47.4490	2,8867100E-003	-3,5768256E-003
02/09/2025 18:15:49.7490	7,3412773E-003	-3,5673522E-003
02/09/2025 18:15:52.0490	9,2503773E-003	-3,5796142E-003
02/09/2025 18:15:54.3490	4,1594426E-003	-3,5683834E-003
02/09/2025 18:15:56.6490	6,7049102E-003	-3,5680779E-003
02/09/2025 18:15:58.9490	9,8867435E-003	-3,5790028E-003
02/09/2025 18:16:01.2490	7,3412773E-003	-3,5746100E-003
02/09/2025 18:16:03.5490	7,3412773E-003	-3,5674286E-003
02/09/2025 18:16:05.8490	4,1594426E-003	-3,5732731E-003
02/09/2025 18:16:08.1490	7,3412773E-003	-3,5706372E-003
02/09/2025 18:16:10.4490	1,1159477E-002	-3,5717834E-003
02/09/2025 18:16:12.7490	6,7049102E-003	-3,5711338E-003
02/09/2025 18:16:15.0490	3,5230771E-003	-3,5812184E-003
02/09/2025 18:16:17.3490	8,6140092E-003	-3,5764819E-003
02/09/2025 18:16:19.6490	3,4124311E-004	-3,5761762E-003
02/09/2025 18:16:21.9490	2,8867100E-003	-3,5722801E-003
02/09/2025 18:16:24.2490	9,2503773E-003	-3,5710193E-003
02/09/2025 18:16:26.5490	8,6140092E-003	-3,5755269E-003
02/09/2025 18:16:28.8490	2,8867100E-003	-3,5690330E-003
02/09/2025 18:16:31.1490	5,4321769E-003	-3,5762144E-003
02/09/2025 18:16:33.4490	-2,9512335E-004	-3,5716305E-003
02/09/2025 18:16:35.7490	6,7049102E-003	-3,5682307E-003
02/09/2025 18:16:38.0490	7,3412773E-003	-3,5728910E-003
02/09/2025 18:16:40.3490	2,2503431E-003	-3,5750684E-003
02/09/2025 18:16:42.6490	9,8867435E-003	-3,5684216E-003
02/09/2025 18:16:44.9490	6,7049102E-003	-3,5817532E-003
02/09/2025 18:16:47.2490	9,2503773E-003	-3,5723182E-003
02/09/2025 18:16:49.5490	6,7049102E-003	-3,5716686E-003
02/09/2025 18:16:51.8490	7,9776440E-003	-3,5717068E-003
02/09/2025 18:16:54.1490	1,4977678E-002	-3,5784682E-003
02/09/2025 18:16:56.4490	6,0685435E-003	-3,5682688E-003
02/09/2025 18:16:58.7490	9,8867435E-003	-3,5764053E-003
02/09/2025 18:17:01.0490	1,4341311E-002	-3,5766347E-003
02/09/2025 18:17:03.3490	7,3412773E-003	-3,5755269E-003
02/09/2025 18:17:05.6490	6,0685435E-003	-3,5701024E-003
02/09/2025 18:17:07.9490	4,7958097E-003	-3,5790412E-003
02/09/2025 18:17:10.2490	6,0685435E-003	-3,5789267E-003
02/09/2025 18:17:12.5490	3,5230771E-003	-3,5720507E-003
02/09/2025 18:17:14.8490	7,3412773E-003	-3,5794615E-003
02/09/2025 18:17:17.1490	1,3704944E-002	-3,5790028E-003
02/09/2025 18:17:19.4490	1,2432210E-002	-3,5791942E-003
02/09/2025 18:17:21.7490	5,4321769E-003	-3,5805309E-003
02/09/2025 18:17:24.0490	6,0685435E-003	-3,5841982E-003
02/09/2025 18:17:26.3490	6,0685435E-003	-3,5793467E-003
02/09/2025 18:17:28.6490	1,1795843E-002	-3,5737315E-003
02/09/2025 18:17:30.9490	4,1594426E-003	-3,5811041E-003
02/09/2025 18:17:33.2490	9,2503773E-003	-3,5779334E-003
02/09/2025 18:17:35.5490	1,1795843E-002	-3,5755269E-003
02/09/2025 18:17:37.8490	1,7523142E-002	-3,5774368E-003
02/09/2025 18:17:40.1490	7,9776440E-003	-3,5781243E-003
02/09/2025 18:17:42.4490	9,8867435E-003	-3,5799199E-003
02/09/2025 18:17:44.7490	6,0685435E-003	-3,5761381E-003
02/09/2025 18:17:47.0490	6,0685435E-003	-3,5798433E-003
02/09/2025 18:17:49.3490	1,1795843E-002	-3,5752975E-003
02/09/2025 18:17:51.6490	5,4321769E-003	-3,5778189E-003
02/09/2025 18:17:53.9490	3,5230771E-003	-3,5828613E-003
02/09/2025 18:17:56.2490	1,1795843E-002	-3,5817150E-003
02/09/2025 18:17:58.5490	6,0685435E-003	-3,5710577E-003
02/09/2025 18:18:00.8490	1,6139771E-003	-3,5767492E-003
02/09/2025 18:18:03.1490	9,2503773E-003	-3,5785828E-003
02/09/2025 18:18:05.4490	8,6140092E-003	-3,5723944E-003
02/09/2025 18:18:07.7490	5,4321769E-003	-3,5765199E-003
02/09/2025 18:18:10.0490	3,5230771E-003	-3,5772840E-003
02/09/2025 18:18:12.3490	2,2503431E-003	-3,5803781E-003
02/09/2025 18:18:14.6490	1,6139771E-003	-3,5733876E-003
02/09/2025 18:18:16.9490	9,8867435E-003	-3,5735406E-003
02/09/2025 18:18:19.2490	2,8867100E-003	-3,5769404E-003
02/09/2025 18:18:21.5016	2,6506285E+001	5,2901888E-003
02/09/2025 18:18:23.8016	2,6506924E+001	7,9374239E-003
02/09/2025 18:18:26.1016	2,6506924E+001	9,4443616E-003
02/09/2025 18:18:28.4016	2,6508196E+001	1,0584659E-002
02/09/2025 18:18:30.7016	2,6510105E+001	1,1559208E-002
02/09/2025 18:18:33.0016	2,6507559E+001	1,2399905E-002
02/09/2025 18:18:35.3016	2,6506285E+001	1,3107592E-002
02/09/2025 18:18:37.6016	2,6503742E+001	1,3769629E-002
02/09/2025 18:18:39.9016	2,6509470E+001	1,4406991E-002
02/09/2025 18:18:42.2016	2,6512012E+001	1,4926048E-002
02/09/2025 18:18:44.5016	2,6497379E+001	1,5444647E-002
02/09/2025 18:18:46.8016	2,6503107E+001	1,5950141E-002
02/09/2025 18:18:49.1016	2,6503107E+001	1,6378205E-002
02/09/2025 18:18:51.4016	2,6510105E+001	1,6769370E-002
02/09/2025 18:18:53.7016	2,6503107E+001	1,7177533E-002
02/09/2025 18:18:56.0016	2,6516468E+001	1,7574467E-002
02/09/2025 18:18:58.3016	2,6506924E+001	1,7878994E-002
02/09/2025 18:19:00.6016	2,6506285E+001	1,8222142E-002
02/09/2025 18:19:02.9016	2,6502468E+001	1,8558526E-002
02/09/2025 18:19:05.2016	2,6511377E+001	1,8811829E-002
02/09/2025 18:19:07.5016	2,6507559E+001	1,9078577E-002
02/09/2025 18:19:09.8016	2,6512651E+001	1,9361522E-002
02/09/2025 18:19:12.1016	2,6510105E+001	1,9608177E-002
02/09/2025 18:19:14.4016	2,6512651E+001	1,9812927E-002
02/09/2025 18:19:16.7016	2,6508831E+001	2,0059047E-002
02/09/2025 18:19:19.0016	2,6507559E+001	2,0287558E-002
02/09/2025 18:19:21.3016	2,6509470E+001	2,0430194E-002
02/09/2025 18:19:23.6016	2,6501831E+001	2,0629825E-002
02/09/2025 18:19:25.9016	2,6507559E+001	2,0845693E-002
02/09/2025 18:19:28.2016	2,6505650E+001	2,0982180E-002
02/09/2025 18:19:30.5016	2,6512012E+001	2,1135246E-002
02/09/2025 18:19:32.8016	2,6509470E+001	2,1314019E-002
02/09/2025 18:19:35.1016	2,6508196E+001	2,1460056E-002
02/09/2025 18:19:37.4016	2,6510742E+001	2,1555174E-002
02/09/2025 18:19:39.7016	2,6509470E+001	2,1690134E-002
02/09/2025 18:19:42.0016	2,6508196E+001	2,1854583E-002
02/09/2025 18:19:44.3016	2,6507559E+001	2,1916389E-002
02/09/2025 18:19:46.6016	2,6512012E+001	2,2039164E-002
02/09/2025 18:19:48.9016	2,6505014E+001	2,2171983E-002
02/09/2025 18:19:51.2016	2,6510105E+001	2,2240629E-002
02/09/2025 18:19:53.5016	2,6503107E+001	2,2311909E-002
02/09/2025 18:19:55.8016	2,6504377E+001	2,2420244E-002
02/09/2025 18:19:58.1016	2,6505014E+001	2,2526285E-002
02/09/2025 18:20:00.4016	2,6503742E+001	2,2550428E-002
02/09/2025 18:20:02.7016	2,6508196E+001	2,2647073E-002
02/09/2025 18:20:05.0016	2,6505014E+001	2,2743527E-002
02/09/2025 18:20:07.3016	2,6506924E+001	2,2748379E-002
02/09/2025 18:20:09.6016	2,6513922E+001	2,2822790E-002
02/09/2025 18:20:11.9016	2,6513922E+001	2,2899458E-002
02/09/2025 18:20:14.2016	2,6514559E+001	2,2950569E-002
02/09/2025 18:20:16.5016	2,6506285E+001	2,2968942E-002
02/09/2025 18:20:18.8016	2,6500557E+001	2,3042019E-002
02/09/2025 18:20:21.1016	2,6513287E+001	2,3110703E-002
02/09/2025 18:20:23.3018	-9,3149021E-004	1,1965614E-002
02/09/2025 18:20:25.6018	1,1795843E-002	1,0388503E-002
02/09/2025 18:20:27.9018	5,4321769E-003	9,2195952E-003
02/09/2025 18:20:30.2018	7,3412773E-003	8,2307206E-003
02/09/2025 18:20:32.5018	1,0523110E-002	7,4281460E-003
02/09/2025 18:20:34.8018	6,7049102E-003	6,7209946E-003
02/09/2025 18:20:37.1018	9,2503773E-003	6,0523865E-003
02/09/2025 18:20:39.4018	9,7761012E-004	5,4575033E-003
02/09/2025 18:20:41.7018	6,0685435E-003	4,9470798E-003
02/09/2025 18:20:44.0018	8,6140092E-003	4,4405144E-003
02/09/2025 18:20:46.3018	7,3412773E-003	3,9692833E-003
02/09/2025 18:20:48.6018	4,1594426E-003	3,5601654E-003
02/09/2025 18:20:50.9018	1,1795843E-002	3,1702234E-003
02/09/2025 18:20:53.2018	1,4977678E-002	2,7789448E-003
02/09/2025 18:20:55.5018	9,8867435E-003	2,4392735E-003
02/09/2025 18:20:57.8018	4,7958097E-003	2,1184729E-003
02/09/2025 18:21:00.1018	9,8867435E-003	1,7962208E-003
02/09/2025 18:21:02.4018	1,6139771E-003	1,5038790E-003
02/09/2025 18:21:04.7018	2,8867100E-003	1,2372073E-003
02/09/2025 18:21:07.0018	1,1795843E-002	9,7278942E-004
02/09/2025 18:21:09.3018	9,2503773E-003	7,2223804E-004
02/09/2025 18:21:11.6018	1,1795843E-002	4,8883818E-004
02/09/2025 18:21:13.9018	4,1594426E-003	2,8233096E-004
02/09/2025 18:21:16.2018	7,3412773E-003	6,8298381E-005
02/09/2025 18:21:18.5018	-4,1133231E-003	-1,2159201E-004
02/09/2025 18:21:20.8018	1,1795843E-002	-3,0678386E-004
02/09/2025 18:21:23.1018	2,8867100E-003	-4,8445037E-004
02/09/2025 18:21:25.4018	7,9776440E-003	-6,5165019E-004
02/09/2025 18:21:27.7018	9,7761012E-004	-8,0666429E-004
02/09/2025 18:21:30.0018	1,2432210E-002	-9,5518446E-004
02/09/2025 18:21:32.3018	6,7049102E-003	-1,0899528E-003
02/09/2025 18:21:34.6018	9,2503773E-003	-1,2134905E-003
02/09/2025 18:21:36.9018	9,2503773E-003	-1,3351945E-003
02/09/2025 18:21:39.2018	6,7049102E-003	-1,4575479E-003
02/09/2025 18:21:41.5018	8,6140092E-003	-1,5619857E-003
02/09/2025 18:21:43.8018	5,4321769E-003	-1,6619542E-003
02/09/2025 18:21:46.1018	1,4977678E-002	-1,7598598E-003
02/09/2025 18:21:48.4018	4,7958097E-003	-1,8469550E-003
02/09/2025 18:21:50.7018	1,6139771E-003	-1,9296191E-003
02/09/2025 18:21:53.0018	7,3412773E-003	-2,0133909E-003
02/09/2025 18:21:55.3018	1,4977678E-002	-2,0857030E-003
02/09/2025 18:21:57.6018	7,9776440E-003	-2,1452559E-003
02/09/2025 18:21:59.9018	1,6886778E-002	-2,2035106E-003
02/09/2025 18:22:02.2018	6,7049102E-003	-2,2588617E-003
02/09/2025 18:22:04.5018	4,1594426E-003	-2,3113480E-003
02/09/2025 18:22:06.8018	7,9776440E-003	-2,3639873E-003
02/09/2025 18:22:09.1018	9,2503773E-003	-2,4095210E-003
02/09/2025 18:22:11.4018	1,0523110E-002	-2,4517698E-003
02/09/2025 18:22:13.7018	4,7958097E-003	-2,4906953E-003
02/09/2025 18:22:16.0018	1,1159477E-002	-2,5306905E-003
02/09/2025 18:22:18.3018	4,1594426E-003	-2,5622051E-003
02/09/2025 18:22:20.6018	4,1594426E-003	-2,5912367E-003
02/09/2025 18:22:22.8020	-2,6491598E+001	-1,3225061E-002
02/09/2025 18:22:25.1020	-2,6484600E+001	-1,5060706E-002
02/09/2025 18:22:27.4020	-2,6483963E+001	-1,6326720E-002
02/09/2025 18:22:29.7020	-2,6483963E+001	-1,7394818E-002
02/09/2025 18:22:32.0020	-2,6478237E+001	-1,8316653E-002
02/09/2025 18:22:34.3020	-2,6489056E+001	-1,9077742E-002
02/09/2025 18:22:36.6020	-2,6484600E+001	-1,9797882E-002
02/09/2025 18:22:38.9020	-2,6490965E+001	-2,0478219E-002
02/09/2025 18:22:41.2020	-2,6490330E+001	-2,1021759E-002
02/09/2025 18:22:43.5020	-2,6487148E+001	-2,1577679E-002
02/09/2025 18:22:45.8020	-2,6488420E+001	-2,2093222E-002
02/09/2025 18:22:48.1020	-2,6489056E+001	-2,2557616E-002
02/09/2025 18:22:50.4020	-2,6484600E+001	-2,2976704E-002
02/09/2025 18:22:52.7020	-2,6490965E+001	-2,3401290E-002
02/09/2025 18:22:55.0020	-2,6483963E+001	-2,3805100E-002
02/09/2025 18:22:57.3020	-2,6482693E+001	-2,4118070E-002
02/09/2025 18:22:59.6020	-2,6477600E+001	-2,4468934E-002
02/09/2025 18:23:01.9020	-2,6486509E+001	-2,4810323E-002
02/09/2025 18:23:04.2020	-2,6487783E+001	-2,5086546E-002
02/09/2025 18:23:06.5020	-2,6494783E+001	-2,5376556E-002
02/09/2025 18:23:08.8020	-2,6476965E+001	-2,5661184E-002
02/09/2025 18:23:11.1020	-2,6483963E+001	-2,5900006E-002
02/09/2025 18:23:13.4020	-2,6479511E+001	-2,6108081E-002
02/09/2025 18:23:15.7020	-2,6484600E+001	-2,6350990E-002
02/09/2025 18:23:18.0020	-2,6478872E+001	-2,6596997E-002
02/09/2025 18:23:20.3020	-2,6486509E+001	-2,6745211E-002
02/09/2025 18:23:22.6020	-2,6490330E+001	-2,6950687E-002
02/09/2025 18:23:24.9020	-2,6482693E+001	-2,7159831E-002
02/09/2025 18:23:27.2020	-2,6484600E+001	-2,7296241E-002
02/09/2025 18:23:29.5020	-2,6483328E+001	-2,7440941E-002
02/09/2025 18:23:31.8020	-2,6489691E+001	-2,7607875E-002
02/09/2025 18:23:34.1020	-2,6482693E+001	-2,7771635E-002
02/09/2025 18:23:36.4020	-2,6483963E+001	-2,7857317E-002
02/09/2025 18:23:38.7020	-2,6489056E+001	-2,8010383E-002
02/09/2025 18:23:41.0020	-2,6482693E+001	-2,8161578E-002
02/09/2025 18:23:43.3020	-2,6487783E+001	-2,8217999E-002
02/09/2025 18:23:45.6020	-2,6484600E+001	-2,8333629E-002
02/09/2025 18:23:47.9020	-2,6487783E+001	-2,8455066E-002
02/09/2025 18:23:50.2020	-2,6487148E+001	-2,8540671E-002
02/09/2025 18:23:52.5020	-2,6485235E+001	-2,8600376E-002
02/09/2025 18:23:54.8020	-2,6483963E+001	-2,8716618E-002
02/09/2025 18:23:57.1020	-2,6482054E+001	-2,8819222E-002
02/09/2025 18:23:59.4020	-2,6483328E+001	-2,8820867E-002
02/09/2025 18:24:01.7020	-2,6487783E+001	-2,8920606E-002
02/09/2025 18:24:04.0020	-2,6489056E+001	-2,9010566E-002
02/09/2025 18:24:06.3020	-2,6486509E+001	-2,9046588E-002
02/09/2025 18:24:08.6020	-2,6490965E+001	-2,9087957E-002
02/09/2025 18:24:10.9020	-2,6483328E+001	-2,9168559E-002
02/09/2025 18:24:13.2020	-2,6486509E+001	-2,9226011E-002
02/09/2025 18:24:15.5020	-2,6493511E+001	-2,9220279E-002
02/09/2025 18:24:17.8020	-2,6485235E+001	-2,9299812E-002
02/09/2025 18:24:20.1020	-2,6491598E+001	-2,9368341E-002
02/09/2025 18:24:22.3022	5,3016052E+001	9,6205535E-004
02/09/2025 18:24:24.6022	5,3005867E+001	6,9802939E-003
02/09/2025 18:24:26.9022	5,3015415E+001	1,1063033E-002
02/09/2025 18:24:29.2022	5,3016052E+001	1,4218782E-002
02/09/2025 18:24:31.5022	5,3012867E+001	1,6877590E-002
02/09/2025 18:24:33.8022	5,3014145E+001	1,9234508E-002
02/09/2025 18:24:36.1022	5,3014778E+001	2,1370137E-002
02/09/2025 18:24:38.4022	5,3007137E+001	2,3210328E-002
02/09/2025 18:24:40.7022	5,3016052E+001	2,4961820E-002
02/09/2025 18:24:43.0022	5,3014778E+001	2,6611507E-002
02/09/2025 18:24:45.3022	5,3018593E+001	2,8022641E-002
02/09/2025 18:24:47.6022	5,3014145E+001	2,9406270E-002
02/09/2025 18:24:49.9022	5,3008415E+001	3,0737488E-002
02/09/2025 18:24:52.2022	5,3012230E+001	3,1923931E-002
02/09/2025 18:24:54.5022	5,3019871E+001	3,3035886E-002
02/09/2025 18:24:56.8022	5,3009045E+001	3,4126673E-002
02/09/2025 18:24:59.1022	5,3008415E+001	3,5145152E-002
02/09/2025 18:25:01.4022	5,3011597E+001	3,6042999E-002
02/09/2025 18:25:03.7022	5,3014778E+001	3,6955088E-002
02/09/2025 18:25:06.0022	5,3013508E+001	3,7869286E-002
02/09/2025 18:25:08.3022	5,3014145E+001	3,8593818E-002
02/09/2025 18:25:10.6022	5,3013508E+001	3,9380502E-002
02/09/2025 18:25:12.9022	5,3012867E+001	4,0130053E-002
02/09/2025 18:25:15.2022	5,3019230E+001	4,0784106E-002
02/09/2025 18:25:17.5022	5,3010960E+001	4,1405771E-002
02/09/2025 18:25:19.8022	5,3009686E+001	4,2048361E-002
02/09/2025 18:25:22.1022	5,3013508E+001	4,2665631E-002
02/09/2025 18:25:24.4022	5,3003323E+001	4,3123532E-002
02/09/2025 18:25:26.7022	5,3016052E+001	4,3699466E-002
02/09/2025 18:25:29.0022	5,3014778E+001	4,4239990E-002
02/09/2025 18:25:31.3022	5,3014778E+001	4,4611216E-002
02/09/2025 18:25:33.6022	5,3012867E+001	4,5069154E-002
02/09/2025 18:25:35.9022	5,3008415E+001	4,5517541E-002
02/09/2025 18:25:38.2022	5,3016052E+001	4,5916915E-002
02/09/2025 18:25:40.5022	5,3014778E+001	4,6224426E-002
02/09/2025 18:25:42.8022	5,3012867E+001	4,6634227E-002
02/09/2025 18:25:45.1022	5,3009045E+001	4,6999689E-002
02/09/2025 18:25:47.4022	5,3009045E+001	4,7198743E-002
02/09/2025 18:25:49.7022	5,3008415E+001	4,7532227E-002
02/09/2025 18:25:52.0022	5,3009686E+001	4,7852721E-002
02/09/2025 18:25:54.3022	5,3007137E+001	4,8062820E-002
02/09/2025 18:25:56.6022	5,3010960E+001	4,8293773E-002
02/09/2025 18:25:58.9022	5,3017960E+001	4,8579428E-002
02/09/2025 18:26:01.2022	5,3010960E+001	4,8802707E-002
02/09/2025 18:26:03.5022	5,3009045E+001	4,8896946E-002
02/09/2025 18:26:05.8022	5,3016685E+001	4,9156439E-002
02/09/2025 18:26:08.1022	5,3015415E+001	4,9390256E-002
02/09/2025 18:26:10.4022	5,3014145E+001	4,9456343E-002
02/09/2025 18:26:12.7022	5,3014145E+001	4,9635652E-002
02/09/2025 18:26:15.0022	5,3017960E+001	4,9839411E-002
02/09/2025 18:26:17.3022	5,3017960E+001	4,9942050E-002
02/09/2025 18:26:19.6022	5,3017323E+001	5,0013792E-002
02/09/2025 18:26:21.8026	4,7958097E-003	3,1202761E-002
02/09/2025 18:26:24.1026	9,8867435E-003	2,6375167E-002
02/09/2025 18:26:26.4026	6,7049102E-003	2,3545224E-002
02/09/2025 18:26:28.7026	8,6140092E-003	2,1415669E-002
02/09/2025 18:26:31.0026	6,7049102E-003	1,9590337E-002
02/09/2025 18:26:33.3026	3,5230771E-003	1,7986258E-002
02/09/2025 18:26:35.6026	1,4977678E-002	1,6639644E-002
02/09/2025 18:26:37.9026	9,2503773E-003	1,5430474E-002
02/09/2025 18:26:40.2026	1,3068578E-002	1,4246477E-002
02/09/2025 18:26:42.5026	7,3412773E-003	1,3242551E-002
02/09/2025 18:26:44.8026	9,7761012E-004	1,2319305E-002
02/09/2025 18:26:47.1026	9,2503773E-003	1,1389831E-002
02/09/2025 18:26:49.4026	1,4977678E-002	1,0557308E-002
02/09/2025 18:26:51.7026	8,6140092E-003	9,8117655E-003
02/09/2025 18:26:54.0026	6,0685435E-003	9,0971654E-003
02/09/2025 18:26:56.3026	7,9776440E-003	8,3850855E-003
02/09/2025 18:26:58.6026	3,5230771E-003	7,7632722E-003
02/09/2025 18:27:00.9026	1,0523110E-002	7,1803071E-003
02/09/2025 18:27:03.2026	5,4321769E-003	6,5724361E-003
02/09/2025 18:27:05.5026	1,0523110E-002	6,0439827E-003
02/09/2025 18:27:07.8026	7,9776440E-003	5,5533079E-003
02/09/2025 18:27:10.1026	8,6140092E-003	5,0697769E-003
02/09/2025 18:27:12.4026	4,7958097E-003	4,6019079E-003
02/09/2025 18:27:14.7026	3,5230771E-003	4,1853408E-003
02/09/2025 18:27:17.0026	6,0685435E-003	3,7856961E-003
02/09/2025 18:27:19.3026	1,2432210E-002	3,3769219E-003
02/09/2025 18:27:21.6026	6,7049102E-003	3,0326666E-003
02/09/2025 18:27:23.9026	3,5230771E-003	2,6889462E-003
02/09/2025 18:27:26.2026	5,4321769E-003	2,3616899E-003
02/09/2025 18:27:28.5026	9,2503773E-003	2,0505921E-003
02/09/2025 18:27:30.8026	1,1795843E-002	1,7694811E-003
02/09/2025 18:27:33.1026	2,8867100E-003	1,4909293E-003
02/09/2025 18:27:35.4026	6,7049102E-003	1,2152044E-003
02/09/2025 18:27:37.7026	2,2503431E-003	9,8413473E-004
02/09/2025 18:27:40.0026	9,2503773E-003	7,5730524E-004
02/09/2025 18:27:42.3026	7,9776440E-003	5,2417285E-004
02/09/2025 18:27:44.6026	9,8867435E-003	3,3183768E-004
02/09/2025 18:27:46.9026	5,4321769E-003	1,4817383E-004
02/09/2025 18:27:49.2026	5,4321769E-003	-3,6712416E-005
02/09/2025 18:27:51.5026	6,0685435E-003	-2,1006237E-004
02/09/2025 18:27:53.8026	7,9776440E-003	-3,5140105E-004
02/09/2025 18:27:56.1026	6,0685435E-003	-5,0385582E-004
02/09/2025 18:27:58.4026	7,3412773E-003	-6,5401860E-004
02/09/2025 18:28:00.7026	1,4977678E-002	-7,7106227E-004
02/09/2025 18:28:03.0026	4,7958097E-003	-8,9112372E-004
02/09/2025 18:28:05.3026	4,7958097E-003	-1,0011387E-003
02/09/2025 18:28:07.6026	5,4321769E-003	-1,0987006E-003
02/09/2025 18:28:09.9026	1,2432210E-002	-1,1910672E-003
02/09/2025 18:28:12.2026	2,2503431E-003	-1,2851530E-003
02/09/2025 18:28:14.5026	9,8867435E-003	-1,3602154E-003
02/09/2025 18:28:16.8026	5,4321769E-003	-1,4314577E-003
02/09/2025 18:28:19.1026	1,3068578E-002	-1,5065580E-003
02/09/2025 18:28:21.3028	-5,2976543E+001	-1,8047858E-002
02/09/2025 18:28:23.6028	-5,2980999E+001	-2,4256352E-002
02/09/2025 18:28:25.9028	-5,2978451E+001	-2,7468484E-002
02/09/2025 18:28:28.2028	-5,2975266E+001	-2,9883197E-002
02/09/2025 18:28:30.5028	-5,2986092E+001	-3,1851128E-002
02/09/2025 18:28:32.8028	-5,2980999E+001	-3,3613201E-002
02/09/2025 18:28:35.1028	-5,2976543E+001	-3,5181299E-002
02/09/2025 18:28:37.4028	-5,2980358E+001	-3,6489706E-002
02/09/2025 18:28:39.7028	-5,2976543E+001	-3,7781276E-002
02/09/2025 18:28:42.0028	-5,2980999E+001	-3,9003208E-002
02/09/2025 18:28:44.3028	-5,2980999E+001	-4,0006943E-002
02/09/2025 18:28:46.6028	-5,2977180E+001	-4,1021947E-002
02/09/2025 18:28:48.9028	-5,2977814E+001	-4,1991986E-002
02/09/2025 18:28:51.2028	-5,2980999E+001	-4,2833827E-002
02/09/2025 18:28:53.5028	-5,2979088E+001	-4,3619979E-002
02/09/2025 18:28:55.8028	-5,2982273E+001	-4,4409182E-002
02/09/2025 18:28:58.1028	-5,2979729E+001	-4,5178141E-002
02/09/2025 18:29:00.4028	-5,2977180E+001	-4,5762789E-002
02/09/2025 18:29:02.7028	-5,2975906E+001	-4,6448927E-002
02/09/2025 18:29:05.0028	-5,2970181E+001	-4,7093127E-002
02/09/2025 18:29:07.3028	-5,2975906E+001	-4,7580022E-002
02/09/2025 18:29:09.6028	-5,2979088E+001	-4,8126809E-002
02/09/2025 18:29:11.9028	-5,2972725E+001	-4,8669744E-002
02/09/2025 18:29:14.2028	-5,2976543E+001	-4,9168974E-002
02/09/2025 18:29:16.5028	-5,2978451E+001	-4,9552418E-002
02/09/2025 18:29:18.8028	-5,2983543E+001	-5,0039772E-002
02/09/2025 18:29:21.1028	-5,2979088E+001	-5,0481509E-002
02/09/2025 18:29:23.4028	-5,2974636E+001	-5,0748758E-002
02/09/2025 18:29:25.7028	-5,2981636E+001	-5,1156651E-002
02/09/2025 18:29:28.0028	-5,2979729E+001	-5,1540330E-002
02/09/2025 18:29:30.3028	-5,2979088E+001	-5,1821861E-002
02/09/2025 18:29:32.6028	-5,2979729E+001	-5,2105300E-002
02/09/2025 18:29:34.9028	-5,2978451E+001	-5,2448221E-002
02/09/2025 18:29:37.2028	-5,2977180E+001	-5,2738231E-002
02/09/2025 18:29:39.5028	-5,2980358E+001	-5,2892368E-002
02/09/2025 18:29:41.8028	-5,2978451E+001	-5,3192347E-002
02/09/2025 18:29:44.1028	-5,2975906E+001	-5,3477775E-002
02/09/2025 18:29:46.4028	-5,2975266E+001	-5,3599060E-002
02/09/2025 18:29:48.7028	-5,2977814E+001	-5,3820733E-002
02/09/2025 18:29:51.0028	-5,2979729E+001	-5,4068573E-002
02/09/2025 18:29:53.3028	-5,2973358E+001	-5,4212321E-002
02/09/2025 18:29:55.6028	-5,2980358E+001	-5,4320499E-002
02/09/2025 18:29:57.9028	-5,2980999E+001	-5,4541867E-002
02/09/2025 18:30:00.2028	-5,2977814E+001	-5,4724462E-002
02/09/2025 18:30:02.5028	-5,2972088E+001	-5,4767892E-002
02/09/2025 18:30:04.8028	-5,2980358E+001	-5,4946326E-002
02/09/2025 18:30:07.1028	-5,2977814E+001	-5,5124141E-002
02/09/2025 18:30:09.4028	-5,2980358E+001	-5,5145651E-002
02/09/2025 18:30:11.7028	-5,2972725E+001	-5,5238016E-002
02/09/2025 18:30:14.0028	-5,2977180E+001	-5,5406209E-002
02/09/2025 18:30:16.3028	-5,2970818E+001	-5,5499610E-002
02/09/2025 18:30:18.6028	-5,2979729E+001	-5,5520806E-002
02/09/2025 18:30:20.9028	-5,2980358E+001	-5,5659551E-002
02/09/2025 18:30:23.1030	7,9508629E+001	-1,7339071E-004
02/09/2025 18:30:25.4030	7,9505440E+001	8,1880512E-003
02/09/2025 18:30:27.7030	7,9506088E+001	1,4262558E-002
02/09/2025 18:30:30.0030	7,9505440E+001	1,9275727E-002
02/09/2025 18:30:32.3030	7,9516266E+001	2,3466228E-002
02/09/2025 18:30:34.6030	7,9509903E+001	2,7161850E-002
02/09/2025 18:30:36.9030	7,9507996E+001	3,0516658E-002
02/09/2025 18:30:39.2030	7,9506088E+001	3,3588711E-002
02/09/2025 18:30:41.5030	7,9509262E+001	3,6305699E-002
02/09/2025 18:30:43.8030	7,9504181E+001	3,8914390E-002
02/09/2025 18:30:46.1030	7,9507347E+001	4,1394044E-002
02/09/2025 18:30:48.4030	7,9505440E+001	4,3535858E-002
02/09/2025 18:30:50.7030	7,9514992E+001	4,5667626E-002
02/09/2025 18:30:53.0030	7,9509262E+001	4,7701068E-002
02/09/2025 18:30:55.3030	7,9504181E+001	4,9498327E-002
02/09/2025 18:30:57.6030	7,9512444E+001	5,1248707E-002
02/09/2025 18:30:59.9030	7,9509903E+001	5,2932244E-002
02/09/2025 18:31:02.2030	7,9511810E+001	5,4545145E-002
02/09/2025 18:31:04.5030	7,9507996E+001	5,5940885E-002
02/09/2025 18:31:06.8029	7,9511177E+001	5,7420969E-002
02/09/2025 18:31:09.1030	7,9503532E+001	5,8822054E-002
02/09/2025 18:31:11.4029	7,9509262E+001	5,9959255E-002
02/09/2025 18:31:13.7030	7,9513084E+001	6,1202500E-002
02/09/2025 18:31:16.0029	7,9507347E+001	6,2397234E-002
02/09/2025 18:31:18.3029	7,9512444E+001	6,3445546E-002
02/09/2025 18:31:20.6029	7,9507996E+001	6,4434804E-002
02/09/2025 18:31:22.9029	7,9501625E+001	6,5483533E-002
02/09/2025 18:31:25.2029	7,9507347E+001	6,6446088E-002
02/09/2025 18:31:27.5029	7,9512444E+001	6,7171499E-002
02/09/2025 18:31:29.8029	7,9512444E+001	6,8069533E-002
02/09/2025 18:31:32.1029	7,9511810E+001	6,8933114E-002
02/09/2025 18:31:34.4029	7,9510536E+001	6,9564819E-002
02/09/2025 18:31:36.7029	7,9505440E+001	7,0287064E-002
02/09/2025 18:31:39.0029	7,9514359E+001	7,1035162E-002
02/09/2025 18:31:41.3029	7,9511177E+001	7,1627870E-002
02/09/2025 18:31:43.6029	7,9511810E+001	7,2127871E-002
02/09/2025 18:31:45.9029	7,9513084E+001	7,2775126E-002
02/09/2025 18:31:48.2029	7,9507347E+001	7,3358007E-002
02/09/2025 18:31:50.5029	7,9514359E+001	7,3706120E-002
02/09/2025 18:31:52.8029	7,9506721E+001	7,4240886E-002
02/09/2025 18:31:55.1029	7,9506721E+001	7,4773960E-002
02/09/2025 18:31:57.4029	7,9512444E+001	7,5056858E-002
02/09/2025 18:31:59.7029	7,9506088E+001	7,5424835E-002
02/09/2025 18:32:02.0029	7,9512444E+001	7,5883463E-002
02/09/2025 18:32:04.3029	7,9499084E+001	7,6226681E-002
02/09/2025 18:32:06.6029	7,9509262E+001	7,6446719E-002
02/09/2025 18:32:08.9029	7,9518806E+001	7,6829478E-002
02/09/2025 18:32:11.2029	7,9514359E+001	7,7184081E-002
02/09/2025 18:32:13.5029	7,9510536E+001	7,7271752E-002
02/09/2025 18:32:15.8029	7,9506088E+001	7,7554770E-002
02/09/2025 18:32:18.1029	7,9507996E+001	7,7893108E-002
02/09/2025 18:32:20.4029	7,9510536E+001	7,8032501E-002
02/09/2025 18:32:22.6033	9,8867435E-003	4,5824092E-002
02/09/2025 18:32:24.9033	5,4321769E-003	4,0020879E-002
02/09/2025 18:32:27.2033	7,3412773E-003	3,5968624E-002
02/09/2025 18:32:29.5033	9,8867435E-003	3,2913264E-002
02/09/2025 18:32:31.8033	1,0523110E-002	3,0377496E-002
02/09/2025 18:32:34.1033	6,0685435E-003	2,8128223E-002
02/09/2025 18:32:36.4033	1,1795843E-002	2,6084123E-002
02/09/2025 18:32:38.7033	8,6140092E-003	2,4341607E-002
02/09/2025 18:32:41.0033	7,3412773E-003	2,2740623E-002
02/09/2025 18:32:43.3033	1,0523110E-002	2,1144796E-002
02/09/2025 18:32:45.6033	9,8867435E-003	1,9793941E-002
02/09/2025 18:32:47.9033	8,6140092E-003	1,8538360E-002
02/09/2025 18:32:50.2033	4,7958097E-003	1,7307986E-002
02/09/2025 18:32:52.5033	1,3068578E-002	1,6155083E-002
02/09/2025 18:32:54.8033	3,5230771E-003	1,5140234E-002
02/09/2025 18:32:57.1033	7,9776440E-003	1,4145819E-002
02/09/2025 18:32:59.4033	1,6886778E-002	1,3168024E-002
02/09/2025 18:33:01.7033	6,0685435E-003	1,2311549E-002
02/09/2025 18:33:04.0033	2,8867100E-003	1,1502137E-002
02/09/2025 18:33:06.3033	2,8867100E-003	1,0677751E-002
02/09/2025 18:33:08.6033	9,8867435E-003	9,9425232E-003
02/09/2025 18:33:10.9033	1,6886778E-002	9,2571070E-003
02/09/2025 18:33:13.2033	1,1795843E-002	8,5779931E-003
02/09/2025 18:33:15.5033	2,8867100E-003	7,9219909E-003
02/09/2025 18:33:17.8033	1,0523110E-002	7,3486143E-003
02/09/2025 18:33:20.1033	9,8867435E-003	6,7884168E-003
02/09/2025 18:33:22.4033	1,3704944E-002	6,2226420E-003
02/09/2025 18:33:24.7033	1,3704944E-002	5,7255882E-003
02/09/2025 18:33:27.0033	3,5230771E-003	5,2611572E-003
02/09/2025 18:33:29.3033	4,7958097E-003	4,7830124E-003
02/09/2025 18:33:31.6033	6,7049102E-003	4,3471926E-003
02/09/2025 18:33:33.9033	2,8867100E-003	3,9596953E-003
02/09/2025 18:33:36.2033	1,4977678E-002	3,5791125E-003
02/09/2025 18:33:38.5033	7,3412773E-003	3,2130072E-003
02/09/2025 18:33:40.8033	1,1159477E-002	2,8907168E-003
02/09/2025 18:33:43.1033	1,1795843E-002	2,5664021E-003
02/09/2025 18:33:45.4033	1,0523110E-002	2,2565264E-003
02/09/2025 18:33:47.7033	8,6140092E-003	1,9756062E-003
02/09/2025 18:33:50.0033	6,0685435E-003	1,7129456E-003
02/09/2025 18:33:52.3033	7,3412773E-003	1,4661759E-003
02/09/2025 18:33:54.6033	3,5230771E-003	1,2312100E-003
02/09/2025 18:33:56.9033	4,1594426E-003	1,0225635E-003
02/09/2025 18:33:59.2033	6,0685435E-003	8,1494852E-004
02/09/2025 18:34:01.5033	4,1594426E-003	6,2723545E-004
02/09/2025 18:34:03.8033	1,1795843E-002	4,5144075E-004
02/09/2025 18:34:06.1033	7,9776440E-003	2,9321786E-004
02/09/2025 18:34:08.4033	1,0523110E-002	1,3423096E-004
02/09/2025 18:34:10.7033	5,4321769E-003	3,5882044E-006
02/09/2025 18:34:13.0033	8,6140092E-003	-1,3091273E-004
02/09/2025 18:34:15.3033	7,3412773E-003	-2,5781192E-004
02/09/2025 18:34:17.6033	7,3412773E-003	-3,6022515E-004
02/09/2025 18:34:19.9033	6,0685435E-003	-4,6057560E-004
02/09/2025 18:34:22.1035	-7,9472939E+001	-3,0082524E-002
02/09/2025 18:34:24.4035	-7,9478027E+001	-3,6393180E-002
02/09/2025 18:34:26.7035	-7,9470398E+001	-4,0697094E-002
02/09/2025 18:34:29.0035	-7,9470398E+001	-4,4155881E-002
02/09/2025 18:34:31.3035	-7,9472305E+001	-4,6977956E-002
02/09/2025 18:34:33.6035	-7,9474213E+001	-4,9469490E-002
02/09/2025 18:34:35.9035	-7,9474213E+001	-5,1750503E-002
02/09/2025 18:34:38.2035	-7,9472305E+001	-5,3844266E-002
02/09/2025 18:34:40.5035	-7,9470398E+001	-5,5622417E-002
02/09/2025 18:34:42.8035	-7,9472939E+001	-5,7420895E-002
02/09/2025 18:34:45.1035	-7,9471664E+001	-5,9104048E-002
02/09/2025 18:34:47.4035	-7,9473579E+001	-6,0466517E-002
02/09/2025 18:34:49.7035	-7,9472939E+001	-6,1910577E-002
02/09/2025 18:34:52.0035	-7,9478668E+001	-6,3262999E-002
02/09/2025 18:34:54.3035	-7,9467842E+001	-6,4475991E-002
02/09/2025 18:34:56.6035	-7,9466583E+001	-6,5574534E-002
02/09/2025 18:34:58.9035	-7,9478027E+001	-6,6755019E-002
02/09/2025 18:35:01.2035	-7,9479301E+001	-6,7815818E-002
02/09/2025 18:35:03.5035	-7,9471031E+001	-6,8642654E-002
02/09/2025 18:35:05.8035	-7,9471664E+001	-6,9635458E-002
02/09/2025 18:35:08.1035	-7,9477394E+001	-7,0575021E-002
02/09/2025 18:35:10.4035	-7,9476120E+001	-7,1294621E-002
02/09/2025 18:35:12.7035	-7,9476761E+001	-7,2085969E-002
02/09/2025 18:35:15.0035	-7,9476761E+001	-7,2909057E-002
02/09/2025 18:35:17.3035	-7,9473579E+001	-7,3568992E-002
02/09/2025 18:35:19.6035	-7,9469124E+001	-7,4133545E-002
02/09/2025 18:35:21.9035	-7,9473579E+001	-7,4841842E-002
02/09/2025 18:35:24.2035	-7,9481209E+001	-7,5492494E-002
02/09/2025 18:35:26.5035	-7,9473579E+001	-7,5910442E-002
02/09/2025 18:35:28.8035	-7,9472939E+001	-7,6511778E-002
02/09/2025 18:35:31.1035	-7,9472305E+001	-7,7088743E-002
02/09/2025 18:35:33.4035	-7,9476120E+001	-7,7442892E-002
02/09/2025 18:35:35.7035	-7,9478668E+001	-7,7868365E-002
02/09/2025 18:35:38.0035	-7,9474846E+001	-7,8373626E-002
02/09/2025 18:35:40.3035	-7,9476761E+001	-7,8786075E-002
02/09/2025 18:35:42.6035	-7,9469749E+001	-7,9058431E-002
02/09/2025 18:35:44.9035	-7,9479942E+001	-7,9497196E-002
02/09/2025 18:35:47.2035	-7,9466583E+001	-7,9898372E-002
02/09/2025 18:35:49.5035	-7,9479942E+001	-8,0034085E-002
02/09/2025 18:35:51.8035	-7,9477394E+001	-8,0367871E-002
02/09/2025 18:35:54.1035	-7,9467842E+001	-8,0747470E-002
02/09/2025 18:35:56.4035	-7,9473579E+001	-8,0925129E-002
02/09/2025 18:35:58.7035	-7,9476120E+001	-8,1140466E-002
02/09/2025 18:36:01.0035	-7,9475487E+001	-8,1458092E-002
02/09/2025 18:36:03.3035	-7,9473579E+001	-8,1677705E-002
02/09/2025 18:36:05.6035	-7,9471031E+001	-8,1740119E-002
02/09/2025 18:36:07.9035	-7,9470398E+001	-8,1994757E-002
02/09/2025 18:36:10.2035	-7,9474846E+001	-8,2302153E-002
02/09/2025 18:36:12.5035	-7,9469749E+001	-8,2305014E-002
02/09/2025 18:36:14.8035	-7,9471664E+001	-8,2511373E-002
02/09/2025 18:36:17.1035	-7,9472939E+001	-8,2734004E-002
02/09/2025 18:36:19.4035	-7,9476761E+001	-8,2809485E-002
02/09/2025 18:36:21.6037	1,0601266E+002	-1,7801683E-002
02/09/2025 18:36:23.9037	1,0601266E+002	8,9898770E-004
02/09/2025 18:36:26.2037	1,0601331E+002	1,1480249E-002
02/09/2025 18:36:28.5037	1,0601140E+002	1,9191762E-002
02/09/2025 18:36:30.8037	1,0601012E+002	2,5665494E-002
02/09/2025 18:36:33.1037	1,0601585E+002	3,1348914E-002
02/09/2025 18:36:35.4037	1,0600185E+002	3,6228344E-002
02/09/2025 18:36:37.7037	1,0601522E+002	4,0681925E-002
02/09/2025 18:36:40.0037	1,0601140E+002	4,4788960E-002
02/09/2025 18:36:42.3037	1,0601713E+002	4,8613276E-002
02/09/2025 18:36:44.6037	1,0601839E+002	5,2050520E-002
02/09/2025 18:36:46.9037	1,0600631E+002	5,5384394E-002
02/09/2025 18:36:49.2037	1,0601203E+002	5,8537465E-002
02/09/2025 18:36:51.5037	1,0601076E+002	6,1304227E-002
02/09/2025 18:36:53.8037	1,0601012E+002	6,4060219E-002
02/09/2025 18:36:56.1037	1,0601266E+002	6,6722505E-002
02/09/2025 18:36:58.4037	1,0601331E+002	6,9094434E-002
02/09/2025 18:37:00.7037	1,0600758E+002	7,1399815E-002
02/09/2025 18:37:03.0037	1,0601967E+002	7,3678657E-002
02/09/2025 18:37:05.3037	1,0601076E+002	7,5792588E-002
02/09/2025 18:37:07.6037	1,0600949E+002	7,7659018E-002
02/09/2025 18:37:09.9037	1,0601331E+002	7,9625927E-002
02/09/2025 18:37:12.2037	1,0601203E+002	8,1529677E-002
02/09/2025 18:37:14.5037	1,0601076E+002	8,3085127E-002
02/09/2025 18:37:16.8037	1,0601012E+002	8,4761523E-002
02/09/2025 18:37:19.1037	1,0601203E+002	8,6415872E-002
02/09/2025 18:37:21.4037	1,0600758E+002	8,7794989E-002
02/09/2025 18:37:23.7037	1,0601012E+002	8,9142978E-002
02/09/2025 18:37:26.0037	1,0601140E+002	9,0572871E-002
02/09/2025 18:37:28.3037	1,0601140E+002	9,1868028E-002
02/09/2025 18:37:30.6037	1,0601394E+002	9,2944987E-002
02/09/2025 18:37:32.9037	1,0600631E+002	9,4179295E-002
02/09/2025 18:37:35.2037	1,0601585E+002	9,5353939E-002
02/09/2025 18:37:37.5037	1,0601839E+002	9,6178286E-002
02/09/2025 18:37:39.8037	1,0601394E+002	9,7177811E-002
02/09/2025 18:37:42.1037	1,0600694E+002	9,8217152E-002
02/09/2025 18:37:44.4037	1,0601522E+002	9,9025264E-002
02/09/2025 18:37:46.7037	1,0601331E+002	9,9783368E-002
02/09/2025 18:37:49.0037	1,0601076E+002	1,0063836E-001
02/09/2025 18:37:51.3037	1,0600822E+002	1,0140786E-001
02/09/2025 18:37:53.6037	1,0601776E+002	1,0189760E-001
02/09/2025 18:37:55.9037	1,0601076E+002	1,0260988E-001
02/09/2025 18:37:58.2037	1,0601457E+002	1,0337131E-001
02/09/2025 18:38:00.5037	1,0601522E+002	1,0374872E-001
02/09/2025 18:38:02.8037	1,0600758E+002	1,0431721E-001
02/09/2025 18:38:05.1037	1,0601203E+002	1,0490572E-001
02/09/2025 18:38:07.4037	1,0601076E+002	1,0531682E-001
02/09/2025 18:38:09.7037	1,0600885E+002	1,0565511E-001
02/09/2025 18:38:12.0037	1,0601012E+002	1,0615076E-001
02/09/2025 18:38:14.3037	1,0601457E+002	1,0666817E-001
02/09/2025 18:38:16.6037	1,0601140E+002	1,0678349E-001
02/09/2025 18:38:18.9037	1,0600822E+002	1,0723169E-001
02/09/2025 18:38:21.2037	1,0601012E+002	1,0765766E-001
02/09/2025 18:38:23.4041	7,3412773E-003	5,9463732E-002
02/09/2025 18:38:25.7041	1,2432210E-002	5,2729934E-002
02/09/2025 18:38:28.0041	1,3704944E-002	4,7894131E-002
02/09/2025 18:38:30.3041	2,8867100E-003	4,3871135E-002
02/09/2025 18:38:32.6041	1,3704944E-002	4,0573705E-002
02/09/2025 18:38:34.9041	6,0685435E-003	3,7753694E-002
02/09/2025 18:38:37.2041	8,6140092E-003	3,5153825E-002
02/09/2025 18:38:39.5041	7,9776440E-003	3,2756455E-002
02/09/2025 18:38:41.8041	1,2432210E-002	3,0724578E-002
02/09/2025 18:38:44.1041	1,3704944E-002	2,8798819E-002
02/09/2025 18:38:46.4041	6,7049102E-003	2,6928870E-002
02/09/2025 18:38:48.7041	7,3412773E-003	2,5280785E-002
02/09/2025 18:38:51.0041	-2,2042233E-003	2,3749629E-002
02/09/2025 18:38:53.3041	8,6140092E-003	2,2253884E-002
02/09/2025 18:38:55.6041	1,1159477E-002	2,0852644E-002
02/09/2025 18:38:57.9041	3,4124311E-004	1,9603593E-002
02/09/2025 18:39:00.2041	6,0685435E-003	1,8395491E-002
02/09/2025 18:39:02.5041	8,6140092E-003	1,7195946E-002
02/09/2025 18:39:04.8041	1,3704944E-002	1,6142400E-002
02/09/2025 18:39:07.1041	1,3068578E-002	1,5130072E-002
02/09/2025 18:39:09.4041	6,0685435E-003	1,4116025E-002
02/09/2025 18:39:11.7041	6,0685435E-003	1,3208134E-002
02/09/2025 18:39:14.0041	1,0523110E-002	1,2371026E-002
02/09/2025 18:39:16.3041	4,1594426E-003	1,1514935E-002
02/09/2025 18:39:18.6041	1,0523110E-002	1,0726800E-002
02/09/2025 18:39:20.9041	1,6139771E-003	1,0011129E-002
02/09/2025 18:39:23.2041	2,8867100E-003	9,3086753E-003
02/09/2025 18:39:25.5041	8,6140092E-003	8,6100819E-003
02/09/2025 18:39:27.8041	1,1795843E-002	8,0059534E-003
02/09/2025 18:39:30.1041	1,6139771E-003	7,4238679E-003
02/09/2025 18:39:32.4041	7,9776440E-003	6,8384586E-003
02/09/2025 18:39:34.7041	5,4321769E-003	6,3186763E-003
02/09/2025 18:39:37.0041	8,6140092E-003	5,8353739E-003
02/09/2025 18:39:39.3041	1,7523142E-002	5,3480999E-003
02/09/2025 18:39:41.6041	9,2503773E-003	4,8974967E-003
02/09/2025 18:39:43.9041	7,3412773E-003	4,4876910E-003
02/09/2025 18:39:46.2041	2,8867100E-003	4,1017979E-003
02/09/2025 18:39:48.5041	7,3412773E-003	3,7227431E-003
02/09/2025 18:39:50.8041	8,6140092E-003	3,3914759E-003
02/09/2025 18:39:53.1041	6,0685435E-003	3,0762907E-003
02/09/2025 18:39:55.4041	6,7049102E-003	2,7558720E-003
02/09/2025 18:39:57.7041	6,7049102E-003	2,4821719E-003
02/09/2025 18:40:00.0041	9,2503773E-003	2,2247061E-003
02/09/2025 18:40:02.3041	7,3412773E-003	1,9817182E-003
02/09/2025 18:40:04.6041	4,1594426E-003	1,7396853E-003
02/09/2025 18:40:06.9041	8,6140092E-003	1,5358903E-003
02/09/2025 18:40:09.2041	6,7049102E-003	1,3382072E-003
02/09/2025 18:40:11.5041	9,2503773E-003	1,1418228E-003
02/09/2025 18:40:13.8041	8,6140092E-003	9,8772545E-004
02/09/2025 18:40:16.1041	8,6140092E-003	8,3664589E-004
02/09/2025 18:40:18.4041	9,8867435E-003	6,8285415E-004
02/09/2025 18:40:20.7041	7,9776440E-003	5,4770388E-004
02/09/2025 18:40:22.9043	-1,0596870E+002	-4,2324588E-002
02/09/2025 18:40:25.2043	-1,0598270E+002	-4,9653612E-002
02/09/2025 18:40:27.5043	-1,0597507E+002	-5,4714832E-002
02/09/2025 18:40:29.8043	-1,0597570E+002	-5,9044115E-002
02/09/2025 18:40:32.1043	-1,0597251E+002	-6,2827252E-002
02/09/2025 18:40:34.4043	-1,0597570E+002	-6,6037513E-002
02/09/2025 18:40:36.7043	-1,0597379E+002	-6,8967424E-002
02/09/2025 18:40:39.0043	-1,0597443E+002	-7,1764253E-002
02/09/2025 18:40:41.3043	-1,0598079E+002	-7,4279010E-002
02/09/2025 18:40:43.6043	-1,0597379E+002	-7,6450735E-002
02/09/2025 18:40:45.9043	-1,0597060E+002	-7,8697979E-002
02/09/2025 18:40:48.2043	-1,0597761E+002	-8,0813743E-002
02/09/2025 18:40:50.5043	-1,0598079E+002	-8,2539111E-002
02/09/2025 18:40:52.8043	-1,0597507E+002	-8,4359974E-002
02/09/2025 18:40:55.1043	-1,0596997E+002	-8,6144269E-002
02/09/2025 18:40:57.4043	-1,0597888E+002	-8,7627411E-002
02/09/2025 18:40:59.7043	-1,0597379E+002	-8,9052148E-002
02/09/2025 18:41:02.0043	-1,0597697E+002	-9,0559542E-002
02/09/2025 18:41:04.3043	-1,0597314E+002	-9,1932245E-002
02/09/2025 18:41:06.6043	-1,0597888E+002	-9,3056001E-002
02/09/2025 18:41:08.9043	-1,0597761E+002	-9,4342567E-002
02/09/2025 18:41:11.2043	-1,0597825E+002	-9,5589362E-002
02/09/2025 18:41:13.5043	-1,0597251E+002	-9,6464589E-002
02/09/2025 18:41:15.8043	-1,0596997E+002	-9,7506374E-002
02/09/2025 18:41:18.1043	-1,0596933E+002	-9,8598883E-002
02/09/2025 18:41:20.4043	-1,0597124E+002	-9,9453673E-002
02/09/2025 18:41:22.7043	-1,0597251E+002	-1,0026156E-001
02/09/2025 18:41:25.0043	-1,0597761E+002	-1,0119214E-001
02/09/2025 18:41:27.3043	-1,0597507E+002	-1,0200373E-001
02/09/2025 18:41:29.6043	-1,0597761E+002	-1,0253513E-001
02/09/2025 18:41:31.9043	-1,0598335E+002	-1,0331734E-001
02/09/2025 18:41:34.2043	-1,0597189E+002	-1,0412560E-001
02/09/2025 18:41:36.5043	-1,0598079E+002	-1,0456384E-001
02/09/2025 18:41:38.8043	-1,0598142E+002	-1,0518672E-001
02/09/2025 18:41:41.1043	-1,0597443E+002	-1,0585166E-001
02/09/2025 18:41:43.4043	-1,0598525E+002	-1,0629783E-001
02/09/2025 18:41:45.7043	-1,0597507E+002	-1,0669323E-001
02/09/2025 18:41:48.0043	-1,0597825E+002	-1,0725633E-001
02/09/2025 18:41:50.3043	-1,0597251E+002	-1,0784411E-001
02/09/2025 18:41:52.6043	-1,0597251E+002	-1,0799603E-001
02/09/2025 18:41:54.9043	-1,0597189E+002	-1,0851910E-001
02/09/2025 18:41:57.2043	-1,0597633E+002	-1,0898750E-001
02/09/2025 18:41:59.5043	-1,0597888E+002	-1,0913710E-001
02/09/2025 18:42:01.8043	-1,0597761E+002	-1,0947710E-001
02/09/2025 18:42:04.1043	-1,0597507E+002	-1,0988042E-001
02/09/2025 18:42:06.4043	-1,0597697E+002	-1,1022181E-001
02/09/2025 18:42:08.7043	-1,0597251E+002	-1,1029030E-001
02/09/2025 18:42:11.0043	-1,0597888E+002	-1,1070519E-001
02/09/2025 18:42:13.3043	-1,0597379E+002	-1,1106388E-001
02/09/2025 18:42:15.6043	-1,0597697E+002	-1,1100166E-001
02/09/2025 18:42:17.9043	-1,0597888E+002	-1,1129992E-001
02/09/2025 18:42:20.2043	-1,0597570E+002	-1,1160540E-001
02/09/2025 18:42:21.2045	-1,0597888E+002	-1,1168664E-001