File: data/phase_2a/Sergey/3/3.3/02 polarisation/SN50_C7D1_lr 0,1MFeCN6_in_1M_KCl_3306mL_symmetric_balanced_4_point_PEIS_10mV_03_CP_C16.txt
time/s	I/mA	<Ewe/V>
02/09/2025 18:42:21.3067	2,1341887E-001	-7,6437071E-002
02/09/2025 18:42:24.5067	7,3414646E-002	-5,9689876E-002
02/09/2025 18:42:27.7067	8,6142294E-002	-5,1875111E-002
02/09/2025 18:42:30.9067	1,3705294E-001	-4,6453357E-002
02/09/2025 18:42:34.1067	9,8869957E-002	-4,1985761E-002
02/09/2025 18:42:37.3067	1,3705294E-001	-3,8189478E-002
02/09/2025 18:42:40.5067	2,1978271E-001	-3,5057034E-002
02/09/2025 18:42:43.7067	1,1159762E-001	-3,2146029E-002
02/09/2025 18:42:46.9067	1,1796144E-001	-2,9625885E-002
02/09/2025 18:42:50.1067	7,9778478E-002	-2,7313164E-002
02/09/2025 18:42:53.3067	3,5231672E-002	-2,5161225E-002
02/09/2025 18:42:56.5067	1,1159762E-001	-2,3327949E-002
02/09/2025 18:42:59.7067	4,7959324E-002	-2,1551436E-002
02/09/2025 18:43:02.9067	1,2432528E-001	-1,9885778E-002
02/09/2025 18:43:06.1067	1,1159762E-001	-1,8452071E-002
02/09/2025 18:43:09.3067	1,1796144E-001	-1,7030051E-002
02/09/2025 18:43:12.5067	7,9778478E-002	-1,5779510E-002
02/09/2025 18:43:15.7067	1,6250826E-001	-1,4622480E-002
02/09/2025 18:43:18.9067	1,1796144E-001	-1,3495897E-002
02/09/2025 18:43:22.1067	1,6250826E-001	-1,2524556E-002
02/09/2025 18:43:25.3067	1,6887209E-001	-1,1583393E-002
02/09/2025 18:43:28.5067	1,0523378E-001	-1,0726194E-002
02/09/2025 18:43:31.7067	1,4341676E-001	-9,9720946E-003
02/09/2025 18:43:34.9067	1,1796144E-001	-9,2297988E-003
02/09/2025 18:43:38.1067	9,8869957E-002	-8,5647814E-003
02/09/2025 18:43:41.3067	1,8159975E-001	-7,9736803E-003
02/09/2025 18:43:44.5067	1,8796356E-001	-7,3897224E-003
02/09/2025 18:43:47.7067	1,3068911E-001	-6,8978257E-003
02/09/2025 18:43:50.9067	1,1159762E-001	-6,4481399E-003
02/09/2025 18:43:54.1067	7,3414646E-002	-6,0117086E-003
02/09/2025 18:43:57.3067	1,1159762E-001	-5,6550009E-003
02/09/2025 18:44:00.5067	1,0523378E-001	-5,2999728E-003
02/09/2025 18:44:03.7067	9,8869957E-002	-4,9847499E-003
02/09/2025 18:44:06.9067	1,3068911E-001	-4,7312570E-003
02/09/2025 18:44:10.1067	9,2506140E-002	-4,4753193E-003
02/09/2025 18:44:13.3067	1,1159762E-001	-4,2536850E-003
02/09/2025 18:44:16.5067	1,5614443E-001	-4,0626489E-003
02/09/2025 18:44:19.7067	1,4978060E-001	-3,8785646E-003
02/09/2025 18:44:22.9065	1,3261925E+002	4,9349234E-002
02/09/2025 18:44:26.1065	1,3262563E+002	6,1127055E-002
02/09/2025 18:44:29.3065	1,3267017E+002	6,9283940E-002
02/09/2025 18:44:32.5065	1,3255562E+002	7,5829983E-002
02/09/2025 18:44:35.7065	1,3258743E+002	8,1301086E-002
02/09/2025 18:44:38.9065	1,3262563E+002	8,6332738E-002
02/09/2025 18:44:42.1065	1,3258107E+002	9,0674207E-002
02/09/2025 18:44:45.3065	1,3263199E+002	9,4486728E-002
02/09/2025 18:44:48.5065	1,3252379E+002	9,8352410E-002
02/09/2025 18:44:51.7065	1,3257471E+002	1,0149903E-001
02/09/2025 18:44:54.9065	1,3263834E+002	1,0451226E-001
02/09/2025 18:44:58.1065	1,3258107E+002	1,0752491E-001
02/09/2025 18:45:01.3065	1,3257471E+002	1,0999876E-001
02/09/2025 18:45:04.5065	1,3251108E+002	1,1250095E-001
02/09/2025 18:45:07.7065	1,3258107E+002	1,1475530E-001
02/09/2025 18:45:10.9065	1,3257471E+002	1,1673675E-001
02/09/2025 18:45:14.1065	1,3264470E+002	1,1893339E-001
02/09/2025 18:45:17.3065	1,3253015E+002	1,2065604E-001
02/09/2025 18:45:20.5065	1,3263199E+002	1,2221634E-001
02/09/2025 18:45:23.7065	1,3260652E+002	1,2403533E-001
02/09/2025 18:45:26.9065	1,3253653E+002	1,2535417E-001
02/09/2025 18:45:30.1065	1,3266380E+002	1,2669566E-001
02/09/2025 18:45:33.3065	1,3265106E+002	1,2811294E-001
02/09/2025 18:45:36.5065	1,3263834E+002	1,2912653E-001
02/09/2025 18:45:39.7065	1,3259380E+002	1,3040110E-001
02/09/2025 18:45:42.9065	1,3260652E+002	1,3132572E-001
02/09/2025 18:45:46.1065	1,3261925E+002	1,3205034E-001
02/09/2025 18:45:49.3065	1,3261925E+002	1,3328725E-001
02/09/2025 18:45:52.5065	1,3261925E+002	1,3389573E-001
02/09/2025 18:45:55.7065	1,3262563E+002	1,3453835E-001
02/09/2025 18:45:58.9065	1,3258743E+002	1,3540426E-001
02/09/2025 18:46:02.1065	1,3258743E+002	1,3581239E-001
02/09/2025 18:46:05.3065	1,3260652E+002	1,3654785E-001
02/09/2025 18:46:08.5065	1,3256834E+002	1,3712864E-001
02/09/2025 18:46:11.7065	1,3259380E+002	1,3736814E-001
02/09/2025 18:46:14.9065	1,3260652E+002	1,3814768E-001
02/09/2025 18:46:18.1065	1,3256834E+002	1,3835581E-001
02/09/2025 18:46:21.3065	1,3258107E+002	1,3863355E-001
02/09/2025 18:46:24.4067	1,2432528E-001	7,1713857E-002
02/09/2025 18:46:27.6067	1,1796144E-001	6,1532013E-002
02/09/2025 18:46:30.8067	1,6250826E-001	5,4275420E-002
02/09/2025 18:46:34.0067	1,0523378E-001	4,8768826E-002
02/09/2025 18:46:37.2067	1,4978060E-001	4,3967705E-002
02/09/2025 18:46:40.4067	1,1796144E-001	3,9880190E-002
02/09/2025 18:46:43.6067	1,2432528E-001	3,6369529E-002
02/09/2025 18:46:46.8067	7,9778478E-002	3,3100288E-002
02/09/2025 18:46:50.0067	1,3068911E-001	3,0282686E-002
02/09/2025 18:46:53.2067	1,1796144E-001	2,7633388E-002
02/09/2025 18:46:56.4067	3,5231672E-002	2,5174897E-002
02/09/2025 18:46:59.6067	4,7959324E-002	2,3088433E-002
02/09/2025 18:47:02.8067	1,1796144E-001	2,1020684E-002
02/09/2025 18:47:06.0067	1,1159762E-001	1,9136984E-002
02/09/2025 18:47:09.2067	1,9432738E-001	1,7462885E-002
02/09/2025 18:47:12.4067	1,1159762E-001	1,5807008E-002
02/09/2025 18:47:15.6067	7,9778478E-002	1,4375782E-002
02/09/2025 18:47:18.8067	9,2506140E-002	1,3036617E-002
02/09/2025 18:47:22.0067	6,7050815E-002	1,1735193E-002
02/09/2025 18:47:25.2067	1,4978060E-001	1,0614875E-002
02/09/2025 18:47:28.4067	9,8869957E-002	9,5164059E-003
02/09/2025 18:47:31.6067	1,3705294E-001	8,5304342E-003
02/09/2025 18:47:34.8067	1,6250826E-001	7,6412242E-003
02/09/2025 18:47:38.0067	1,1796144E-001	6,7814267E-003
02/09/2025 18:47:41.2067	1,0523378E-001	6,0287407E-003
02/09/2025 18:47:44.4067	1,1796144E-001	5,3230026E-003
02/09/2025 18:47:47.6067	1,1159762E-001	4,6751746E-003
02/09/2025 18:47:50.8067	1,3068911E-001	4,1079484E-003
02/09/2025 18:47:54.0067	1,4978060E-001	3,5840403E-003
02/09/2025 18:47:57.2067	6,7050815E-002	3,0939006E-003
02/09/2025 18:48:00.4067	1,7523590E-001	2,6728641E-003
02/09/2025 18:48:03.6067	1,2432528E-001	2,2867040E-003
02/09/2025 18:48:06.8067	1,2432528E-001	1,9286207E-003
02/09/2025 18:48:10.0067	1,4978060E-001	1,6199677E-003
02/09/2025 18:48:13.2067	6,0686987E-002	1,3351511E-003
02/09/2025 18:48:16.4067	9,8869957E-002	1,0931947E-003
02/09/2025 18:48:19.6067	1,2432528E-001	8,6705282E-004
02/09/2025 18:48:22.7069	-1,3238332E+002	-5,0814692E-002
02/09/2025 18:48:25.9069	-1,3237061E+002	-6,3522108E-002
02/09/2025 18:48:29.1069	-1,3238968E+002	-7,1731284E-002
02/09/2025 18:48:32.3069	-1,3236423E+002	-7,8454152E-002
02/09/2025 18:48:35.5069	-1,3230058E+002	-8,4161520E-002
02/09/2025 18:48:38.7069	-1,3237695E+002	-8,9047909E-002
02/09/2025 18:48:41.9069	-1,3240242E+002	-9,3674414E-002
02/09/2025 18:48:45.1069	-1,3235785E+002	-9,7661003E-002
02/09/2025 18:48:48.3069	-1,3238332E+002	-1,0122702E-001
02/09/2025 18:48:51.5069	-1,3245969E+002	-1,0487588E-001
02/09/2025 18:48:54.7069	-1,3234514E+002	-1,0778017E-001
02/09/2025 18:48:57.9069	-1,3242787E+002	-1,1065698E-001
02/09/2025 18:49:01.1069	-1,3242149E+002	-1,1353498E-001
02/09/2025 18:49:04.3069	-1,3241513E+002	-1,1581726E-001
02/09/2025 18:49:07.5069	-1,3239604E+002	-1,1824412E-001
02/09/2025 18:49:10.7069	-1,3242787E+002	-1,2037066E-001
02/09/2025 18:49:13.9069	-1,3238968E+002	-1,2223911E-001
02/09/2025 18:49:17.1069	-1,3244060E+002	-1,2433031E-001
02/09/2025 18:49:20.3069	-1,3240242E+002	-1,2592423E-001
02/09/2025 18:49:23.5069	-1,3233240E+002	-1,2741405E-001
02/09/2025 18:49:26.7069	-1,3244696E+002	-1,2913965E-001
02/09/2025 18:49:29.9069	-1,3243423E+002	-1,3035209E-001
02/09/2025 18:49:33.1069	-1,3242787E+002	-1,3165635E-001
02/09/2025 18:49:36.3069	-1,3238332E+002	-1,3299957E-001
02/09/2025 18:49:39.5069	-1,3235150E+002	-1,3390303E-001
02/09/2025 18:49:42.7069	-1,3233240E+002	-1,3515246E-001
02/09/2025 18:49:45.9069	-1,3241513E+002	-1,3597253E-001
02/09/2025 18:49:49.1069	-1,3237061E+002	-1,3662717E-001
02/09/2025 18:49:52.3069	-1,3245332E+002	-1,3785879E-001
02/09/2025 18:49:55.5069	-1,3232603E+002	-1,3839729E-001
02/09/2025 18:49:58.7069	-1,3242149E+002	-1,3900325E-001
02/09/2025 18:50:01.9069	-1,3239604E+002	-1,3980399E-001
02/09/2025 18:50:05.1069	-1,3238968E+002	-1,4014591E-001
02/09/2025 18:50:08.3069	-1,3241513E+002	-1,4089960E-001
02/09/2025 18:50:11.5069	-1,3235150E+002	-1,4138740E-001
02/09/2025 18:50:14.7069	-1,3238332E+002	-1,4158070E-001
02/09/2025 18:50:17.9069	-1,3240242E+002	-1,4237501E-001
02/09/2025 18:50:21.1069	-1,3244696E+002	-1,4250563E-001
02/09/2025 18:50:24.2071	1,5907368E+002	-5,1447528E-004
02/09/2025 18:50:27.4071	1,5903551E+002	2,0543037E-002
02/09/2025 18:50:30.6071	1,5907368E+002	3,5046980E-002
02/09/2025 18:50:33.8071	1,5913097E+002	4,6936963E-002
02/09/2025 18:50:37.0071	1,5906096E+002	5,6908023E-002
02/09/2025 18:50:40.2071	1,5905460E+002	6,5775916E-002
02/09/2025 18:50:43.4071	1,5906734E+002	7,3914036E-002
02/09/2025 18:50:46.6071	1,5902914E+002	8,1158303E-002
02/09/2025 18:50:49.8071	1,5911823E+002	8,7886326E-002
02/09/2025 18:50:53.0071	1,5906096E+002	9,4390430E-002
02/09/2025 18:50:56.2071	1,5910551E+002	1,0014742E-001
02/09/2025 18:50:59.4071	1,5909277E+002	1,0567883E-001
02/09/2025 18:51:02.6071	1,5904825E+002	1,1102354E-001
02/09/2025 18:51:05.8071	1,5902914E+002	1,1580590E-001
02/09/2025 18:51:09.0071	1,5906096E+002	1,2054041E-001
02/09/2025 18:51:12.2071	1,5909914E+002	1,2490063E-001
02/09/2025 18:51:15.4071	1,5905460E+002	1,2884635E-001
02/09/2025 18:51:18.6071	1,5912460E+002	1,3302955E-001
02/09/2025 18:51:21.8071	1,5911188E+002	1,3655052E-001
02/09/2025 18:51:25.0071	1,5914371E+002	1,3983341E-001
02/09/2025 18:51:28.2071	1,5903551E+002	1,4333650E-001
02/09/2025 18:51:31.4071	1,5911188E+002	1,4612477E-001
02/09/2025 18:51:34.6071	1,5903551E+002	1,4899646E-001
02/09/2025 18:51:37.8071	1,5908005E+002	1,5174115E-001
02/09/2025 18:51:41.0071	1,5906734E+002	1,5397820E-001
02/09/2025 18:51:44.2071	1,5904825E+002	1,5651698E-001
02/09/2025 18:51:47.4071	1,5909914E+002	1,5849164E-001
02/09/2025 18:51:50.6071	1,5908643E+002	1,6026318E-001
02/09/2025 18:51:53.8071	1,5910551E+002	1,6244778E-001
02/09/2025 18:51:57.0071	1,5905460E+002	1,6392374E-001
02/09/2025 18:52:00.2071	1,5902278E+002	1,6538216E-001
02/09/2025 18:52:03.4071	1,5910551E+002	1,6696377E-001
02/09/2025 18:52:06.6071	1,5905460E+002	1,6808440E-001
02/09/2025 18:52:09.8071	1,5901006E+002	1,6942027E-001
02/09/2025 18:52:13.0071	1,5914371E+002	1,7058855E-001
02/09/2025 18:52:16.2071	1,5909914E+002	1,7134997E-001
02/09/2025 18:52:19.4071	1,5906734E+002	1,7265017E-001
02/09/2025 18:52:22.5075	1,4341676E-001	1,0082088E-001
02/09/2025 18:52:25.7075	1,8796356E-001	8,1829771E-002
02/09/2025 18:52:28.9075	1,3705294E-001	7,1513504E-002
02/09/2025 18:52:32.1075	9,2506140E-002	6,3734718E-002
02/09/2025 18:52:35.3075	9,2506140E-002	5,7406109E-002
02/09/2025 18:52:38.5075	1,1159762E-001	5,2308213E-002
02/09/2025 18:52:41.7075	1,3705294E-001	4,7623869E-002
02/09/2025 18:52:44.9075	1,4978060E-001	4,3605879E-002
02/09/2025 18:52:48.1075	9,2506140E-002	4,0054116E-002
02/09/2025 18:52:51.3075	1,4341676E-001	3,6684524E-002
02/09/2025 18:52:54.5075	1,3068911E-001	3,3771724E-002
02/09/2025 18:52:57.7075	1,8159975E-001	3,0995490E-002
02/09/2025 18:53:00.9075	1,1159762E-001	2,8428819E-002
02/09/2025 18:53:04.1075	9,8869957E-002	2,6189707E-002
02/09/2025 18:53:07.3075	1,0523378E-001	2,3988644E-002
02/09/2025 18:53:10.5075	1,0523378E-001	2,1986144E-002
02/09/2025 18:53:13.7075	1,4978060E-001	2,0146562E-002
02/09/2025 18:53:16.9075	1,2432528E-001	1,8399730E-002
02/09/2025 18:53:20.1075	1,1159762E-001	1,6829191E-002
02/09/2025 18:53:23.3075	1,4978060E-001	1,5357398E-002
02/09/2025 18:53:26.5075	8,6142294E-002	1,3940077E-002
02/09/2025 18:53:29.7075	1,5614443E-001	1,2727658E-002
02/09/2025 18:53:32.9075	9,7763510E-003	1,1522689E-002
02/09/2025 18:53:36.1075	1,3068911E-001	1,0416580E-002
02/09/2025 18:53:39.3075	1,7523590E-001	9,4585335E-003
02/09/2025 18:53:42.5075	6,0686987E-002	8,5244756E-003
02/09/2025 18:53:45.7075	1,3068911E-001	7,6830140E-003
02/09/2025 18:53:48.9075	1,1796144E-001	6,9125658E-003
02/09/2025 18:53:52.1075	1,4978060E-001	6,1983471E-003
02/09/2025 18:53:55.3075	7,3414646E-002	5,5732867E-003
02/09/2025 18:53:58.5075	1,0523378E-001	4,9722535E-003
02/09/2025 18:54:01.7075	1,7523590E-001	4,4263806E-003
02/09/2025 18:54:04.9075	1,3705294E-001	3,9655403E-003
02/09/2025 18:54:08.1075	1,3705294E-001	3,5109643E-003
02/09/2025 18:54:11.3075	9,8869957E-002	3,1305724E-003
02/09/2025 18:54:14.5075	1,8159975E-001	2,7891060E-003
02/09/2025 18:54:17.7075	7,9778478E-002	2,4620022E-003
02/09/2025 18:54:20.9075	1,4978060E-001	2,1843675E-003
02/09/2025 18:54:24.0077	-1,5886957E+002	-6,6949949E-002
02/09/2025 18:54:27.2077	-1,5885684E+002	-7,9314977E-002
02/09/2025 18:54:30.4077	-1,5892049E+002	-8,8759616E-002
02/09/2025 18:54:33.6077	-1,5880594E+002	-9,6194901E-002
02/09/2025 18:54:36.8077	-1,5886957E+002	-1,0293798E-001
02/09/2025 18:54:40.0077	-1,5890138E+002	-1,0890022E-001
02/09/2025 18:54:43.2077	-1,5889502E+002	-1,1413430E-001
02/09/2025 18:54:46.4077	-1,5892683E+002	-1,1922508E-001
02/09/2025 18:54:49.6077	-1,5881865E+002	-1,2368573E-001
02/09/2025 18:54:52.8077	-1,5888866E+002	-1,2772782E-001
02/09/2025 18:54:56.0077	-1,5890776E+002	-1,3187642E-001
02/09/2025 18:54:59.2077	-1,5890776E+002	-1,3524887E-001
02/09/2025 18:55:02.4077	-1,5884413E+002	-1,3852042E-001
02/09/2025 18:55:05.6077	-1,5891411E+002	-1,4190386E-001
02/09/2025 18:55:08.8077	-1,5888231E+002	-1,4460006E-001
02/09/2025 18:55:12.0077	-1,5890776E+002	-1,4738111E-001
02/09/2025 18:55:15.2077	-1,5886957E+002	-1,4994572E-001
02/09/2025 18:55:18.4077	-1,5885684E+002	-1,5204729E-001
02/09/2025 18:55:21.6077	-1,5883139E+002	-1,5465522E-001
02/09/2025 18:55:24.8077	-1,5885048E+002	-1,5652935E-001
02/09/2025 18:55:28.0077	-1,5887593E+002	-1,5822160E-001
02/09/2025 18:55:31.2077	-1,5887593E+002	-1,6039000E-001
02/09/2025 18:55:34.4077	-1,5885684E+002	-1,6174647E-001
02/09/2025 18:55:37.6077	-1,5882503E+002	-1,6337050E-001
02/09/2025 18:55:40.8077	-1,5885684E+002	-1,6493759E-001
02/09/2025 18:55:44.0077	-1,5888231E+002	-1,6598809E-001
02/09/2025 18:55:47.2077	-1,5885048E+002	-1,6756061E-001
02/09/2025 18:55:50.4077	-1,5890138E+002	-1,6850555E-001
02/09/2025 18:55:53.6077	-1,5888231E+002	-1,6936031E-001
02/09/2025 18:55:56.8077	-1,5884413E+002	-1,7079359E-001
02/09/2025 18:56:00.0077	-1,5889502E+002	-1,7145120E-001
02/09/2025 18:56:03.2077	-1,5885048E+002	-1,7225203E-001
02/09/2025 18:56:06.4077	-1,5888231E+002	-1,7320399E-001
02/09/2025 18:56:09.6077	-1,5891411E+002	-1,7366271E-001
02/09/2025 18:56:12.8077	-1,5888866E+002	-1,7450739E-001
02/09/2025 18:56:16.0077	-1,5888231E+002	-1,7519653E-001
02/09/2025 18:56:19.2077	-1,5892049E+002	-1,7548631E-001
02/09/2025 18:56:22.3079	1,8561086E+002	-2,6526328E-002
02/09/2025 18:56:25.5079	1,8559177E+002	1,0764807E-002
02/09/2025 18:56:28.7079	1,8566812E+002	3,1529445E-002
02/09/2025 18:56:31.9079	1,8566812E+002	4,7008816E-002
02/09/2025 18:56:35.1079	1,8563631E+002	5,9626348E-002
02/09/2025 18:56:38.3079	1,8562360E+002	7,0819296E-002
02/09/2025 18:56:41.5079	1,8564905E+002	8,0713235E-002
02/09/2025 18:56:44.7079	1,8563631E+002	8,9726634E-002
02/09/2025 18:56:47.9079	1,8559813E+002	9,8345920E-002
02/09/2025 18:56:51.1079	1,8563631E+002	1,0611408E-001
02/09/2025 18:56:54.3079	1,8561722E+002	1,1339127E-001
02/09/2025 18:56:57.5079	1,8563631E+002	1,2064320E-001
02/09/2025 18:57:00.7079	1,8562360E+002	1,2704496E-001
02/09/2025 18:57:03.9079	1,8562994E+002	1,3332029E-001
02/09/2025 18:57:07.1079	1,8560449E+002	1,3944781E-001
02/09/2025 18:57:10.3079	1,8567448E+002	1,4490880E-001
02/09/2025 18:57:13.5079	1,8564267E+002	1,5039709E-001
02/09/2025 18:57:16.7079	1,8557903E+002	1,5543704E-001
02/09/2025 18:57:19.9079	1,8564905E+002	1,6009445E-001
02/09/2025 18:57:23.1079	1,8561722E+002	1,6497476E-001
02/09/2025 18:57:26.3079	1,8561086E+002	1,6912086E-001
02/09/2025 18:57:29.5079	1,8559813E+002	1,7301697E-001
02/09/2025 18:57:32.7079	1,8564905E+002	1,7710643E-001
02/09/2025 18:57:35.9079	1,8566812E+002	1,8047136E-001
02/09/2025 18:57:39.1079	1,8569995E+002	1,8383980E-001
02/09/2025 18:57:42.3079	1,8555995E+002	1,8713292E-001
02/09/2025 18:57:45.5079	1,8559177E+002	1,8978727E-001
02/09/2025 18:57:48.7079	1,8564267E+002	1,9281034E-001
02/09/2025 18:57:51.9079	1,8565540E+002	1,9520740E-001
02/09/2025 18:57:55.1079	1,8559813E+002	1,9726457E-001
02/09/2025 18:57:58.3079	1,8558540E+002	1,9999237E-001
02/09/2025 18:58:01.5079	1,8561722E+002	2,0176354E-001
02/09/2025 18:58:04.7079	1,8563631E+002	2,0355494E-001
02/09/2025 18:58:07.9079	1,8569995E+002	2,0558655E-001
02/09/2025 18:58:11.1079	1,8562360E+002	2,0685256E-001
02/09/2025 18:58:14.3079	1,8566177E+002	2,0872721E-001
02/09/2025 18:58:17.5079	1,8557268E+002	2,1019523E-001
02/09/2025 18:58:20.7079	1,8571906E+002	2,1116225E-001
02/09/2025 18:58:23.8083	1,3068911E-001	1,0860111E-001
02/09/2025 18:58:27.0083	1,1159762E-001	9,1691963E-002
02/09/2025 18:58:30.2083	1,5614443E-001	8,0599017E-002
02/09/2025 18:58:33.4083	1,4341676E-001	7,2438046E-002
02/09/2025 18:58:36.6083	9,8869957E-002	6,5564938E-002
02/09/2025 18:58:39.8083	9,2506140E-002	5,9648886E-002
02/09/2025 18:58:43.0083	1,0523378E-001	5,4667540E-002
02/09/2025 18:58:46.2083	1,1796144E-001	5,0057989E-002
02/09/2025 18:58:49.4083	9,2506140E-002	4,5994118E-002
02/09/2025 18:58:52.6083	1,8159975E-001	4,2356331E-002
02/09/2025 18:58:55.8083	1,1796144E-001	3,8884670E-002
02/09/2025 18:58:59.0083	9,2506140E-002	3,5871178E-002
02/09/2025 18:59:02.2083	1,0523378E-001	3,2966018E-002
02/09/2025 18:59:05.4083	1,3068911E-001	3,0237952E-002
02/09/2025 18:59:08.6083	9,2506140E-002	2,7908346E-002
02/09/2025 18:59:11.8083	1,4978060E-001	2,5593946E-002
02/09/2025 18:59:15.0083	1,1796144E-001	2,3462940E-002
02/09/2025 18:59:18.2083	9,2506140E-002	2,1546770E-002
02/09/2025 18:59:21.4083	1,5614443E-001	1,9663567E-002
02/09/2025 18:59:24.6083	1,0523378E-001	1,8039051E-002
02/09/2025 18:59:27.8083	8,6142294E-002	1,6456706E-002
02/09/2025 18:59:31.0083	1,1796144E-001	1,4985104E-002
02/09/2025 18:59:34.2083	9,2506140E-002	1,3702513E-002
02/09/2025 18:59:37.4083	1,1159762E-001	1,2438104E-002
02/09/2025 18:59:40.6083	4,1595493E-002	1,1299412E-002
02/09/2025 18:59:43.8083	6,0686987E-002	1,0286893E-002
02/09/2025 18:59:47.0083	1,0523378E-001	9,2943134E-003
02/09/2025 18:59:50.2083	1,2432528E-001	8,4360819E-003
02/09/2025 18:59:53.4083	8,6142294E-002	7,6426375E-003
02/09/2025 18:59:56.6083	1,3705294E-001	6,8975529E-003
02/09/2025 18:59:59.8083	1,0523378E-001	6,2496872E-003
02/09/2025 19:00:03.0083	1,1159762E-001	5,6426567E-003
02/09/2025 19:00:06.2083	1,5614443E-001	5,0914362E-003
02/09/2025 19:00:09.4083	1,9432738E-001	4,6062246E-003
02/09/2025 19:00:12.6083	1,1796144E-001	4,1585243E-003
02/09/2025 19:00:15.8083	9,2506140E-002	3,7612484E-003
02/09/2025 19:00:19.0083	7,3414646E-002	3,4222649E-003
02/09/2025 19:00:22.1085	-1,8535582E+002	-6,3842982E-002
02/09/2025 19:00:25.3085	-1,8538129E+002	-8,4303707E-002
02/09/2025 19:00:28.5085	-1,8535582E+002	-9,6796587E-002
02/09/2025 19:00:31.7085	-1,8539400E+002	-1,0681815E-001
02/09/2025 19:00:34.9085	-1,8533673E+002	-1,1577535E-001
02/09/2025 19:00:38.1085	-1,8538129E+002	-1,2322833E-001
02/09/2025 19:00:41.3085	-1,8527945E+002	-1,3015124E-001
02/09/2025 19:00:44.5085	-1,8533037E+002	-1,3658690E-001
02/09/2025 19:00:47.7085	-1,8529855E+002	-1,4223938E-001
02/09/2025 19:00:50.9085	-1,8529855E+002	-1,4788298E-001
02/09/2025 19:00:54.1085	-1,8536855E+002	-1,5286784E-001
02/09/2025 19:00:57.3085	-1,8539400E+002	-1,5730207E-001
02/09/2025 19:01:00.5085	-1,8533037E+002	-1,6211171E-001
02/09/2025 19:01:03.7085	-1,8539400E+002	-1,6586226E-001
02/09/2025 19:01:06.9085	-1,8541948E+002	-1,6959982E-001
02/09/2025 19:01:10.1085	-1,8536220E+002	-1,7348185E-001
02/09/2025 19:01:13.3085	-1,8537491E+002	-1,7654745E-001
02/09/2025 19:01:16.5085	-1,8536855E+002	-1,7979328E-001
02/09/2025 19:01:19.7085	-1,8541309E+002	-1,8271971E-001
02/09/2025 19:01:22.9085	-1,8536220E+002	-1,8523906E-001
02/09/2025 19:01:26.1085	-1,8536855E+002	-1,8815686E-001
02/09/2025 19:01:29.3085	-1,8533037E+002	-1,9044743E-001
02/09/2025 19:01:32.5085	-1,8538129E+002	-1,9247262E-001
02/09/2025 19:01:35.7085	-1,8535582E+002	-1,9496191E-001
02/09/2025 19:01:38.9085	-1,8533037E+002	-1,9663955E-001
02/09/2025 19:01:42.1085	-1,8540674E+002	-1,9848743E-001
02/09/2025 19:01:45.3085	-1,8534946E+002	-2,0051323E-001
02/09/2025 19:01:48.5085	-1,8538129E+002	-2,0178142E-001
02/09/2025 19:01:51.7085	-1,8534309E+002	-2,0360881E-001
02/09/2025 19:01:54.9085	-1,8534309E+002	-2,0494923E-001
02/09/2025 19:01:58.1085	-1,8535582E+002	-2,0587650E-001
02/09/2025 19:02:01.3085	-1,8533673E+002	-2,0777498E-001
02/09/2025 19:02:04.5085	-1,8534309E+002	-2,0863469E-001
02/09/2025 19:02:07.7085	-1,8534309E+002	-2,0956914E-001
02/09/2025 19:02:10.9085	-1,8533037E+002	-2,1091276E-001
02/09/2025 19:02:14.1085	-1,8538765E+002	-2,1145830E-001
02/09/2025 19:02:17.3085	-1,8534309E+002	-2,1270628E-001
02/09/2025 19:02:20.5085	-1,8538129E+002	-2,1359508E-001
02/09/2025 19:02:23.6087	2,1217984E+002	-8,1634559E-003
02/09/2025 19:02:26.8087	2,1214803E+002	2,3757270E-002
02/09/2025 19:02:30.0087	2,1213531E+002	4,3933667E-002
02/09/2025 19:02:33.2087	2,1219258E+002	6,0015179E-002
02/09/2025 19:02:36.4087	2,1219258E+002	7,3720098E-002
02/09/2025 19:02:39.6087	2,1220529E+002	8,5610501E-002
02/09/2025 19:02:42.8087	2,1219258E+002	9,6696496E-002
02/09/2025 19:02:46.0087	2,1209712E+002	1,0679702E-001
02/09/2025 19:02:49.2087	2,1214803E+002	1,1624623E-001
02/09/2025 19:02:52.4087	2,1209712E+002	1,2546526E-001
02/09/2025 19:02:55.6087	2,1217984E+002	1,3387911E-001
02/09/2025 19:02:58.8087	2,1214803E+002	1,4193602E-001
02/09/2025 19:03:02.0087	2,1212894E+002	1,5001501E-001
02/09/2025 19:03:05.2087	2,1210985E+002	1,5722692E-001
02/09/2025 19:03:08.4087	2,1207166E+002	1,6430625E-001
02/09/2025 19:03:11.6087	2,1216077E+002	1,7135948E-001
02/09/2025 19:03:14.8087	2,1214166E+002	1,7767724E-001
02/09/2025 19:03:18.0087	2,1210349E+002	1,8400747E-001
02/09/2025 19:03:21.2087	2,1214166E+002	1,8990655E-001
02/09/2025 19:03:24.4087	2,1209074E+002	1,9524175E-001
02/09/2025 19:03:27.6087	2,1219258E+002	2,0105718E-001
02/09/2025 19:03:30.8087	2,1207803E+002	2,0590292E-001
02/09/2025 19:03:34.0087	2,1216711E+002	2,1037458E-001
02/09/2025 19:03:37.2087	2,1212257E+002	2,1531935E-001
02/09/2025 19:03:40.4087	2,1221167E+002	2,1917112E-001
02/09/2025 19:03:43.6087	2,1209712E+002	2,2324796E-001
02/09/2025 19:03:46.8087	2,1216711E+002	2,2720774E-001
02/09/2025 19:03:50.0087	2,1212257E+002	2,3034477E-001
02/09/2025 19:03:53.2087	2,1215439E+002	2,3408929E-001
02/09/2025 19:03:56.4087	2,1212894E+002	2,3707581E-001
02/09/2025 19:03:59.6087	2,1209074E+002	2,3978053E-001
02/09/2025 19:04:02.8087	2,1217984E+002	2,4326921E-001
02/09/2025 19:04:06.0087	2,1210985E+002	2,4573199E-001
02/09/2025 19:04:09.2087	2,1215439E+002	2,4823722E-001
02/09/2025 19:04:12.4087	2,1212894E+002	2,5117114E-001
02/09/2025 19:04:15.6087	2,1211621E+002	2,5331783E-001
02/09/2025 19:04:18.8087	2,1213531E+002	2,5596231E-001
02/09/2025 19:04:21.9091	1,1796144E-001	1,5550339E-001
02/09/2025 19:04:25.1091	9,2506140E-002	1,1845376E-001
02/09/2025 19:04:28.3091	1,0523378E-001	1,0200376E-001
02/09/2025 19:04:31.5091	1,3068911E-001	9,0640560E-002
02/09/2025 19:04:34.7091	9,8869957E-002	8,1444301E-002
02/09/2025 19:04:37.9091	7,9778478E-002	7,4210472E-002
02/09/2025 19:04:41.1091	6,7050815E-002	6,7699149E-002
02/09/2025 19:04:44.3091	6,7050815E-002	6,1934140E-002
02/09/2025 19:04:47.5091	8,6142294E-002	5,7022814E-002
02/09/2025 19:04:50.7091	1,3068911E-001	5,2332889E-002
02/09/2025 19:04:53.9091	3,5231672E-002	4,8215009E-002
02/09/2025 19:04:57.1091	9,8869957E-002	4,4459868E-002
02/09/2025 19:05:00.3091	1,0523378E-001	4,0868875E-002
02/09/2025 19:05:03.5091	1,4341676E-001	3,7743606E-002
02/09/2025 19:05:06.7091	1,6250826E-001	3,4681108E-002
02/09/2025 19:05:09.9091	1,1159762E-001	3,1880345E-002
02/09/2025 19:05:13.1091	9,8869957E-002	2,9422544E-002
02/09/2025 19:05:16.3091	1,3068911E-001	2,6994346E-002
02/09/2025 19:05:19.5091	7,3414646E-002	2,4771050E-002
02/09/2025 19:05:22.7091	1,1159762E-001	2,2774545E-002
02/09/2025 19:05:25.9091	1,1796144E-001	2,0827241E-002
02/09/2025 19:05:29.1091	4,1595493E-002	1,9090991E-002
02/09/2025 19:05:32.3091	6,7050815E-002	1,7472206E-002
02/09/2025 19:05:35.5091	1,2432528E-001	1,5929857E-002
02/09/2025 19:05:38.7091	1,2432528E-001	1,4585192E-002
02/09/2025 19:05:41.9091	7,3414646E-002	1,3291714E-002
02/09/2025 19:05:45.1091	1,1159762E-001	1,2104393E-002
02/09/2025 19:05:48.3091	1,2432528E-001	1,1059824E-002
02/09/2025 19:05:51.5091	1,8159975E-001	1,0053379E-002
02/09/2025 19:05:54.7091	1,2432528E-001	9,1603473E-003
02/09/2025 19:05:57.9091	1,1796144E-001	8,3470000E-003
02/09/2025 19:06:01.1091	7,3414646E-002	7,5783092E-003
02/09/2025 19:06:04.3091	1,6250826E-001	6,9330786E-003
02/09/2025 19:06:07.5091	1,6250826E-001	6,3143973E-003
02/09/2025 19:06:10.7091	1,3068911E-001	5,7452614E-003
02/09/2025 19:06:13.9091	1,0523378E-001	5,2676895E-003
02/09/2025 19:06:17.1091	1,3068911E-001	4,8161699E-003
02/09/2025 19:06:20.3091	1,3705294E-001	4,4211089E-003
02/09/2025 19:06:23.4093	-2,1183574E+002	-8,3893701E-002
02/09/2025 19:06:26.6093	-2,1184209E+002	-1,0195476E-001
02/09/2025 19:06:29.8093	-2,1179117E+002	-1,1552476E-001
02/09/2025 19:06:33.0093	-2,1182300E+002	-1,2638499E-001
02/09/2025 19:06:36.2093	-2,1186754E+002	-1,3603072E-001
02/09/2025 19:06:39.4093	-2,1181664E+002	-1,4516599E-001
02/09/2025 19:06:42.6093	-2,1182935E+002	-1,5288806E-001
02/09/2025 19:06:45.8093	-2,1180389E+002	-1,6031441E-001
02/09/2025 19:06:49.0093	-2,1187392E+002	-1,6729911E-001
02/09/2025 19:06:52.2093	-2,1177846E+002	-1,7349882E-001
02/09/2025 19:06:55.4093	-2,1181027E+002	-1,7966729E-001
02/09/2025 19:06:58.6093	-2,1187392E+002	-1,8525557E-001
02/09/2025 19:07:01.8093	-2,1187392E+002	-1,9024588E-001
02/09/2025 19:07:05.0093	-2,1181664E+002	-1,9560783E-001
02/09/2025 19:07:08.2093	-2,1176572E+002	-1,9987471E-001
02/09/2025 19:07:11.4093	-2,1177846E+002	-2,0399964E-001
02/09/2025 19:07:14.6093	-2,1177846E+002	-2,0855837E-001
02/09/2025 19:07:17.8093	-2,1178482E+002	-2,1203148E-001
02/09/2025 19:07:21.0093	-2,1179755E+002	-2,1569628E-001
02/09/2025 19:07:24.2093	-2,1181027E+002	-2,1922013E-001
02/09/2025 19:07:27.4093	-2,1176572E+002	-2,2196724E-001
02/09/2025 19:07:30.6093	-2,1174026E+002	-2,2563127E-001
02/09/2025 19:07:33.8093	-2,1184845E+002	-2,2830729E-001
02/09/2025 19:07:37.0093	-2,1181664E+002	-2,3060858E-001
02/09/2025 19:07:40.2093	-2,1180389E+002	-2,3384091E-001
02/09/2025 19:07:43.4093	-2,1177846E+002	-2,3582329E-001
02/09/2025 19:07:46.6093	-2,1181027E+002	-2,3823962E-001
02/09/2025 19:07:49.8093	-2,1184845E+002	-2,4084719E-001
02/09/2025 19:07:53.0093	-2,1182935E+002	-2,4252549E-001
02/09/2025 19:07:56.2093	-2,1181664E+002	-2,4506971E-001
02/09/2025 19:07:59.4093	-2,1178482E+002	-2,4687949E-001
02/09/2025 19:08:02.6093	-2,1185481E+002	-2,4841489E-001
02/09/2025 19:08:05.8093	-2,1177846E+002	-2,5101131E-001
02/09/2025 19:08:09.0093	-2,1180389E+002	-2,5242788E-001
02/09/2025 19:08:12.2093	-2,1186754E+002	-2,5396556E-001
02/09/2025 19:08:15.4093	-2,1179755E+002	-2,5606653E-001
02/09/2025 19:08:18.6093	-2,1182300E+002	-2,5724187E-001
02/09/2025 19:08:21.7095	2,3855792E+002	-5,9383478E-002
02/09/2025 19:08:24.9095	2,3855156E+002	8,1459181E-003
02/09/2025 19:08:28.1095	2,3858337E+002	3,6830176E-002
02/09/2025 19:08:31.3095	2,3860883E+002	5,7457831E-002
02/09/2025 19:08:34.5095	2,3862155E+002	7,3804796E-002
02/09/2025 19:08:37.7095	2,3862791E+002	8,8259958E-002
02/09/2025 19:08:40.9095	2,3856429E+002	1,0145262E-001
02/09/2025 19:08:44.1095	2,3857701E+002	1,1327258E-001
02/09/2025 19:08:47.3095	2,3855156E+002	1,2464102E-001
02/09/2025 19:08:50.5095	2,3864066E+002	1,3534148E-001
02/09/2025 19:08:53.7095	2,3858337E+002	1,4541833E-001
02/09/2025 19:08:56.9095	2,3865338E+002	1,5550430E-001
02/09/2025 19:09:00.1095	2,3862155E+002	1,6485745E-001
02/09/2025 19:09:03.3095	2,3864700E+002	1,7377669E-001
02/09/2025 19:09:06.5095	2,3857701E+002	1,8298665E-001
02/09/2025 19:09:09.7095	2,3864066E+002	1,9113170E-001
02/09/2025 19:09:12.9095	2,3860883E+002	1,9925539E-001
02/09/2025 19:09:16.1095	2,3853883E+002	2,0738924E-001
02/09/2025 19:09:19.3095	2,3858974E+002	2,1464586E-001
02/09/2025 19:09:22.5095	2,3863429E+002	2,2199807E-001
02/09/2025 19:09:25.7095	2,3855156E+002	2,2882056E-001
02/09/2025 19:09:28.9095	2,3860246E+002	2,3509291E-001
02/09/2025 19:09:32.1095	2,3858974E+002	2,4178916E-001
02/09/2025 19:09:35.3095	2,3852611E+002	2,4752669E-001
02/09/2025 19:09:38.5095	2,3856429E+002	2,5285485E-001
02/09/2025 19:09:41.7095	2,3869792E+002	2,5868410E-001
02/09/2025 19:09:44.9095	2,3859610E+002	2,6353294E-001
02/09/2025 19:09:48.1095	2,3861520E+002	2,6844266E-001
02/09/2025 19:09:51.3095	2,3862791E+002	2,7369469E-001
02/09/2025 19:09:54.5095	2,3854518E+002	2,7807111E-001
02/09/2025 19:09:57.7095	2,3864700E+002	2,8339842E-001
02/09/2025 19:10:00.9095	2,3854518E+002	2,8819916E-001
02/09/2025 19:10:04.1095	2,3858337E+002	2,9275686E-001
02/09/2025 19:10:07.3095	2,3858974E+002	2,9927218E-001
02/09/2025 19:10:10.5095	2,3860246E+002	3,0448040E-001
02/09/2025 19:10:13.7095	2,3854518E+002	3,1013507E-001
02/09/2025 19:10:16.9095	2,3860246E+002	3,1686759E-001
02/09/2025 19:10:20.1095	2,3857063E+002	3,2203466E-001
02/09/2025 19:10:23.2099	1,1796144E-001	1,6091540E-001
02/09/2025 19:10:26.4099	7,9778478E-002	1,3188615E-001
02/09/2025 19:10:29.6099	2,0705505E-001	1,1469109E-001
02/09/2025 19:10:32.8099	1,3705294E-001	1,0234294E-001
02/09/2025 19:10:36.0099	1,3068911E-001	9,2403777E-002
02/09/2025 19:10:39.2099	1,4978060E-001	8,3926551E-002
02/09/2025 19:10:42.4099	7,3414646E-002	7,6915428E-002
02/09/2025 19:10:45.6099	1,4341676E-001	7,0484713E-002
02/09/2025 19:10:48.8099	9,8869957E-002	6,4695820E-002
02/09/2025 19:10:52.0099	1,3068911E-001	5,9682079E-002
02/09/2025 19:10:55.2099	1,1796144E-001	5,4881990E-002
02/09/2025 19:10:58.4099	8,6142294E-002	5,0609473E-002
02/09/2025 19:11:01.6099	1,4978060E-001	4,6740577E-002
02/09/2025 19:11:04.8099	1,6250826E-001	4,2977799E-002
02/09/2025 19:11:08.0099	9,8869957E-002	3,9715931E-002
02/09/2025 19:11:11.2099	1,5614443E-001	3,6539976E-002
02/09/2025 19:11:14.4099	1,1159762E-001	3,3552270E-002
02/09/2025 19:11:17.6099	1,4978060E-001	3,1010004E-002
02/09/2025 19:11:20.8099	1,1159762E-001	2,8454525E-002
02/09/2025 19:11:24.0099	7,9778478E-002	2,6129467E-002
02/09/2025 19:11:27.2099	1,1159762E-001	2,4027493E-002
02/09/2025 19:11:30.4099	9,2506140E-002	2,1979114E-002
02/09/2025 19:11:33.6099	1,4978060E-001	2,0207530E-002
02/09/2025 19:11:36.8099	1,4978060E-001	1,8515248E-002
02/09/2025 19:11:40.0099	1,1796144E-001	1,6896689E-002
02/09/2025 19:11:43.2099	1,4978060E-001	1,5519211E-002
02/09/2025 19:11:46.4099	1,3705294E-001	1,4155294E-002
02/09/2025 19:11:49.6099	7,9778478E-002	1,2950667E-002
02/09/2025 19:11:52.8099	1,3068911E-001	1,1876265E-002
02/09/2025 19:11:56.0099	1,6250826E-001	1,0838838E-002
02/09/2025 19:11:59.2099	1,0523378E-001	9,9216662E-003
02/09/2025 19:12:02.4099	1,0523378E-001	9,0833372E-003
02/09/2025 19:12:05.6099	1,3068911E-001	8,3194580E-003
02/09/2025 19:12:08.8099	1,4978060E-001	7,6480233E-003
02/09/2025 19:12:12.0099	1,6887209E-001	7,0208237E-003
02/09/2025 19:12:15.2099	1,4978060E-001	6,4585628E-003
02/09/2025 19:12:18.4099	1,1159762E-001	5,9720525E-003
02/09/2025 19:12:21.5101	-2,3822015E+002	-7,1041018E-002
02/09/2025 19:12:24.7101	-2,3831561E+002	-1,0328575E-001
02/09/2025 19:12:27.9101	-2,3827744E+002	-1,2095205E-001
02/09/2025 19:12:31.1101	-2,3832198E+002	-1,3491036E-001
02/09/2025 19:12:34.3101	-2,3829652E+002	-1,4737985E-001
02/09/2025 19:12:37.5101	-2,3832198E+002	-1,5810254E-001
02/09/2025 19:12:40.7101	-2,3834106E+002	-1,6789432E-001
02/09/2025 19:12:43.9101	-2,3832198E+002	-1,7762078E-001
02/09/2025 19:12:47.1101	-2,3832834E+002	-1,8588613E-001
02/09/2025 19:12:50.3101	-2,3832834E+002	-1,9387519E-001
02/09/2025 19:12:53.5101	-2,3833472E+002	-2,0158748E-001
02/09/2025 19:12:56.7101	-2,3835381E+002	-2,0829308E-001
02/09/2025 19:12:59.9101	-2,3830289E+002	-2,1523659E-001
02/09/2025 19:13:03.1101	-2,3827106E+002	-2,2141355E-001
02/09/2025 19:13:06.3101	-2,3827106E+002	-2,2683640E-001
02/09/2025 19:13:09.5101	-2,3834106E+002	-2,3300011E-001
02/09/2025 19:13:12.7101	-2,3832834E+002	-2,3773159E-001
02/09/2025 19:13:15.9101	-2,3830289E+002	-2,4244601E-001
02/09/2025 19:13:19.1101	-2,3836652E+002	-2,4765819E-001
02/09/2025 19:13:22.3101	-2,3826471E+002	-2,5165498E-001
02/09/2025 19:13:25.5101	-2,3825835E+002	-2,5607166E-001
02/09/2025 19:13:28.7101	-2,3828378E+002	-2,6021716E-001
02/09/2025 19:13:31.9101	-2,3830289E+002	-2,6374599E-001
02/09/2025 19:13:35.1101	-2,3831561E+002	-2,6816422E-001
02/09/2025 19:13:38.3101	-2,3830923E+002	-2,7183142E-001
02/09/2025 19:13:41.5101	-2,3831561E+002	-2,7512431E-001
02/09/2025 19:13:44.7101	-2,3828378E+002	-2,7956706E-001
02/09/2025 19:13:47.9101	-2,3830289E+002	-2,8290564E-001
02/09/2025 19:13:51.1101	-2,3831561E+002	-2,8653270E-001
02/09/2025 19:13:54.3101	-2,3831561E+002	-2,9106525E-001
02/09/2025 19:13:57.5101	-2,3834106E+002	-2,9434326E-001
02/09/2025 19:14:00.7101	-2,3834743E+002	-2,9873708E-001
02/09/2025 19:14:03.9101	-2,3835381E+002	-3,0256706E-001
02/09/2025 19:14:07.1101	-2,3833472E+002	-3,0563810E-001
02/09/2025 19:14:10.3101	-2,3834743E+002	-3,1083804E-001
02/09/2025 19:14:13.5101	-2,3834743E+002	-3,1394115E-001
02/09/2025 19:14:16.7101	-2,3833472E+002	-3,1719661E-001
02/09/2025 19:14:19.9101	-2,3827106E+002	-3,2170069E-001
02/09/2025 19:14:23.0103	2,6507599E+002	-2,4017872E-002
02/09/2025 19:14:26.2103	2,6512689E+002	2,3443878E-002
02/09/2025 19:14:29.4103	2,6506326E+002	5,0193064E-002
02/09/2025 19:14:32.6103	2,6506961E+002	7,0596404E-002
02/09/2025 19:14:35.8103	2,6512054E+002	8,8082328E-002
02/09/2025 19:14:39.0103	2,6508234E+002	1,0310208E-001
02/09/2025 19:14:42.2103	2,6503784E+002	1,1709541E-001
02/09/2025 19:14:45.4103	2,6509509E+002	1,3044527E-001
02/09/2025 19:14:48.6103	2,6515237E+002	1,4265372E-001
02/09/2025 19:14:51.8103	2,6514597E+002	1,5471938E-001
02/09/2025 19:14:55.0103	2,6511420E+002	1,6628253E-001
02/09/2025 19:14:58.2103	2,6515872E+002	1,7737329E-001
02/09/2025 19:15:01.4103	2,6513962E+002	1,8855765E-001
02/09/2025 19:15:04.6103	2,6510782E+002	1,9907680E-001
02/09/2025 19:15:07.8103	2,6512054E+002	2,0920464E-001
02/09/2025 19:15:11.0103	2,6501233E+002	2,1968786E-001
02/09/2025 19:15:14.2103	2,6516510E+002	2,2911596E-001
02/09/2025 19:15:17.4103	2,6511420E+002	2,3835243E-001
02/09/2025 19:15:20.6103	2,6512689E+002	2,4782798E-001
02/09/2025 19:15:23.8103	2,6507599E+002	2,5626287E-001
02/09/2025 19:15:27.0103	2,6511420E+002	2,6477656E-001
02/09/2025 19:15:30.2103	2,6505692E+002	2,7282634E-001
02/09/2025 19:15:33.4103	2,6511420E+002	2,8006092E-001
02/09/2025 19:15:36.6103	2,6507599E+002	2,8829867E-001
02/09/2025 19:15:39.8103	2,6511420E+002	2,9529577E-001
02/09/2025 19:15:43.0103	2,6513962E+002	3,0198330E-001
02/09/2025 19:15:46.2103	2,6507599E+002	3,1003293E-001
02/09/2025 19:15:49.4103	2,6503146E+002	3,1701165E-001
02/09/2025 19:15:52.6103	2,6507599E+002	3,2565179E-001
02/09/2025 19:15:55.8103	2,6512054E+002	3,3630198E-001
02/09/2025 19:15:59.0103	2,6511420E+002	3,4769693E-001
02/09/2025 19:16:02.2103	2,6512054E+002	3,6202550E-001
02/09/2025 19:16:05.4103	2,6506961E+002	3,7474540E-001
02/09/2025 19:16:08.6103	2,6505692E+002	3,8709742E-001
02/09/2025 19:16:11.8103	2,6510147E+002	4,0303728E-001
02/09/2025 19:16:15.0103	2,6510782E+002	4,1517875E-001
02/09/2025 19:16:18.2103	2,6514597E+002	4,2891476E-001
02/09/2025 19:16:21.3107	2,6507599E+002	4,4515902E-001
02/09/2025 19:16:24.5107	9,7763510E-003	1,7630324E-001
02/09/2025 19:16:27.7107	1,0523378E-001	1,4774339E-001
02/09/2025 19:16:30.9107	1,5614443E-001	1,3007084E-001
02/09/2025 19:16:34.1107	1,1159762E-001	1,1612578E-001
02/09/2025 19:16:37.3107	1,4341676E-001	1,0508839E-001
02/09/2025 19:16:40.5107	1,4978060E-001	9,5721222E-002
02/09/2025 19:16:43.7107	1,1159762E-001	8,7345108E-002
02/09/2025 19:16:46.9107	1,5614443E-001	8,0484003E-002
02/09/2025 19:16:50.1107	1,3705294E-001	7,3930696E-002
02/09/2025 19:16:53.3107	1,1159762E-001	6,8001084E-002
02/09/2025 19:16:56.5107	1,6887209E-001	6,2884815E-002
02/09/2025 19:16:59.7107	1,4978060E-001	5,7875581E-002
02/09/2025 19:17:02.9107	1,6887209E-001	5,3477582E-002
02/09/2025 19:17:06.1107	4,7959324E-002	4,9414817E-002
02/09/2025 19:17:09.3107	1,0523378E-001	4,5466464E-002
02/09/2025 19:17:12.5107	1,2432528E-001	4,2065401E-002
02/09/2025 19:17:15.7107	1,4341676E-001	3,8722586E-002
02/09/2025 19:17:18.9107	1,4341676E-001	3,5624217E-002
02/09/2025 19:17:22.1107	1,6250826E-001	3,2915976E-002
02/09/2025 19:17:25.3107	1,0523378E-001	3,0230580E-002
02/09/2025 19:17:28.5107	1,7523590E-001	2,7799670E-002
02/09/2025 19:17:31.7107	1,4341676E-001	2,5589246E-002
02/09/2025 19:17:34.9107	9,2506140E-002	2,3437463E-002
02/09/2025 19:17:38.1107	1,4341676E-001	2,1557963E-002
02/09/2025 19:17:41.3107	4,7959324E-002	1,9790391E-002
02/09/2025 19:17:44.5107	6,0686987E-002	1,8104449E-002
02/09/2025 19:17:47.7107	1,2432528E-001	1,6656568E-002
02/09/2025 19:17:50.9107	6,0686987E-002	1,5257238E-002
02/09/2025 19:17:54.1107	6,7050815E-002	1,3967580E-002
02/09/2025 19:17:57.3107	4,7959324E-002	1,2867202E-002
02/09/2025 19:18:00.5107	8,6142294E-002	1,1789590E-002
02/09/2025 19:18:03.7107	1,1796144E-001	1,0849574E-002
02/09/2025 19:18:06.9107	1,3068911E-001	9,9857263E-003
02/09/2025 19:18:10.1107	1,4978060E-001	9,1923196E-003
02/09/2025 19:18:13.3107	1,1159762E-001	8,5183643E-003
02/09/2025 19:18:16.5107	1,5614443E-001	7,8646149E-003
02/09/2025 19:18:19.7107	4,7959324E-002	7,2900928E-003
02/09/2025 19:18:22.8109	-2,6474460E+002	-9,7449377E-002
02/09/2025 19:18:26.0109	-2,6476367E+002	-1,2262677E-001
02/09/2025 19:18:29.2109	-2,6478278E+002	-1,4085416E-001
02/09/2025 19:18:32.4109	-2,6477643E+002	-1,5597722E-001
02/09/2025 19:18:35.6109	-2,6478278E+002	-1,6914502E-001
02/09/2025 19:18:38.8109	-2,6478278E+002	-1,8178971E-001
02/09/2025 19:18:42.0109	-2,6474460E+002	-1,9285251E-001
02/09/2025 19:18:45.2109	-2,6475095E+002	-2,0328996E-001
02/09/2025 19:18:48.4109	-2,6474460E+002	-2,1374035E-001
02/09/2025 19:18:51.6109	-2,6477005E+002	-2,2265905E-001
02/09/2025 19:18:54.8109	-2,6480823E+002	-2,3138812E-001
02/09/2025 19:18:58.0109	-2,6479550E+002	-2,3980942E-001
02/09/2025 19:19:01.2109	-2,6481461E+002	-2,4722898E-001
02/09/2025 19:19:04.4109	-2,6478278E+002	-2,5477368E-001
02/09/2025 19:19:07.6109	-2,6473825E+002	-2,6171955E-001
02/09/2025 19:19:10.8109	-2,6473187E+002	-2,6782867E-001
02/09/2025 19:19:14.0109	-2,6484006E+002	-2,7470362E-001
02/09/2025 19:19:17.2109	-2,6477643E+002	-2,8026351E-001
02/09/2025 19:19:20.4109	-2,6479550E+002	-2,8566417E-001
02/09/2025 19:19:23.6109	-2,6473825E+002	-2,9211617E-001
02/09/2025 19:19:26.8109	-2,6472549E+002	-2,9720926E-001
02/09/2025 19:19:30.0109	-2,6478278E+002	-3,0296007E-001
02/09/2025 19:19:33.2109	-2,6477005E+002	-3,0905890E-001
02/09/2025 19:19:36.4109	-2,6479550E+002	-3,1445295E-001
02/09/2025 19:19:39.6109	-2,6478915E+002	-3,2232437E-001
02/09/2025 19:19:42.8109	-2,6480823E+002	-3,2949868E-001
02/09/2025 19:19:46.0109	-2,6487186E+002	-3,3672324E-001
02/09/2025 19:19:49.2109	-2,6474460E+002	-3,4654033E-001
02/09/2025 19:19:52.4109	-2,6477005E+002	-3,5377076E-001
02/09/2025 19:19:55.6109	-2,6482095E+002	-3,6225516E-001
02/09/2025 19:19:58.8109	-2,6477643E+002	-3,7152418E-001
02/09/2025 19:20:02.0109	-2,6476367E+002	-3,7844279E-001
02/09/2025 19:20:05.2109	-2,6482733E+002	-3,8809502E-001
02/09/2025 19:20:08.4109	-2,6484641E+002	-3,9575940E-001
02/09/2025 19:20:11.6109	-2,6482095E+002	-4,0316457E-001
02/09/2025 19:20:14.8109	-2,6480188E+002	-4,1484204E-001
02/09/2025 19:20:18.0109	-2,6478278E+002	-4,2213839E-001
02/09/2025 19:20:21.2109	-2,6480823E+002	-4,3066734E-001
02/09/2025 19:20:24.3111	2,9160043E+002	-1,8173886E-003
02/09/2025 19:20:27.5111	2,9163861E+002	3,7484922E-002
02/09/2025 19:20:30.7111	2,9156223E+002	6,3745029E-002
02/09/2025 19:20:33.9111	2,9163861E+002	8,4108919E-002
02/09/2025 19:20:37.1111	2,9154950E+002	1,0184757E-001
02/09/2025 19:20:40.3111	2,9154950E+002	1,1819006E-001
02/09/2025 19:20:43.5111	2,9161951E+002	1,3289054E-001
02/09/2025 19:20:46.7111	2,9158771E+002	1,4702035E-001
02/09/2025 19:20:49.9111	2,9159409E+002	1,6101448E-001
02/09/2025 19:20:53.1111	2,9156860E+002	1,7400943E-001
02/09/2025 19:20:56.3111	2,9158136E+002	1,8702245E-001
02/09/2025 19:20:59.5111	2,9155588E+002	1,9979702E-001
02/09/2025 19:21:02.7111	2,9156860E+002	2,1206105E-001
02/09/2025 19:21:05.9111	2,9158771E+002	2,2469042E-001
02/09/2025 19:21:09.1111	2,9152408E+002	2,3664232E-001
02/09/2025 19:21:12.3111	2,9161316E+002	2,4808653E-001
02/09/2025 19:21:15.5111	2,9161316E+002	2,6018417E-001
02/09/2025 19:21:18.7111	2,9167679E+002	2,7093792E-001
02/09/2025 19:21:21.9111	2,9158771E+002	2,8161725E-001
02/09/2025 19:21:25.1111	2,9162585E+002	2,9261607E-001
02/09/2025 19:21:28.3111	2,9160043E+002	3,0238512E-001
02/09/2025 19:21:31.5111	2,9163861E+002	3,1242719E-001
02/09/2025 19:21:34.7111	2,9158771E+002	3,2220593E-001
02/09/2025 19:21:37.9111	2,9149225E+002	3,3147961E-001
02/09/2025 19:21:41.1111	2,9156860E+002	3,4224457E-001
02/09/2025 19:21:44.3111	2,9163861E+002	3,5328281E-001
02/09/2025 19:21:47.5111	2,9164499E+002	3,6683151E-001
02/09/2025 19:21:50.7111	2,9160043E+002	3,9076185E-001
02/09/2025 19:21:53.9111	2,9153680E+002	4,1474530E-001
02/09/2025 19:21:57.1111	2,9154315E+002	4,3896246E-001
02/09/2025 19:22:00.3111	2,9160043E+002	4,6694109E-001
02/09/2025 19:22:03.5111	2,9160678E+002	4,9159732E-001
02/09/2025 19:22:06.7111	2,9162585E+002	5,2462912E-001
02/09/2025 19:22:09.9111	2,9154950E+002	5,5547553E-001
02/09/2025 19:22:13.1111	2,9156860E+002	5,8329558E-001
02/09/2025 19:22:16.3111	2,9158771E+002	6,3724601E-001
02/09/2025 19:22:19.5111	2,9153043E+002	6,6361505E-001
02/09/2025 19:22:22.6115	1,3068911E-001	2,5262246E-001
02/09/2025 19:22:25.8115	1,1159762E-001	1,9511263E-001
02/09/2025 19:22:29.0115	8,6142294E-002	1,6653220E-001
02/09/2025 19:22:32.2115	1,1796144E-001	1,4683513E-001
02/09/2025 19:22:35.4115	9,2506140E-002	1,3205715E-001
02/09/2025 19:22:38.6115	1,3068911E-001	1,1945008E-001
02/09/2025 19:22:41.8115	1,1159762E-001	1,0898852E-001
02/09/2025 19:22:45.0115	8,6142294E-002	9,9852368E-002
02/09/2025 19:22:48.2115	1,4978060E-001	9,1584310E-002
02/09/2025 19:22:51.4115	9,2506140E-002	8,4536716E-002
02/09/2025 19:22:54.6115	1,1796144E-001	7,7923439E-002
02/09/2025 19:22:57.8115	1,1159762E-001	7,1838655E-002
02/09/2025 19:23:01.0115	6,7050815E-002	6,6526383E-002
02/09/2025 19:23:04.2115	1,3068911E-001	6,1377916E-002
02/09/2025 19:23:07.4115	1,1796144E-001	5,6722142E-002
02/09/2025 19:23:10.6115	1,3068911E-001	5,2523278E-002
02/09/2025 19:23:13.8115	1,4341676E-001	4,8411813E-002
02/09/2025 19:23:17.0115	7,3414646E-002	4,4822346E-002
02/09/2025 19:23:20.2115	9,8869957E-002	4,1341938E-002
02/09/2025 19:23:23.4115	1,0523378E-001	3,8045883E-002
02/09/2025 19:23:26.6115	7,3414646E-002	3,5223924E-002
02/09/2025 19:23:29.8115	1,4978060E-001	3,2396879E-002
02/09/2025 19:23:33.0115	1,3068911E-001	2,9813286E-002
02/09/2025 19:23:36.2115	1,2432528E-001	2,7496975E-002
02/09/2025 19:23:39.4115	1,0523378E-001	2,5226390E-002
02/09/2025 19:23:42.6115	4,7959324E-002	2,3258954E-002
02/09/2025 19:23:45.8115	1,2432528E-001	2,1404477E-002
02/09/2025 19:23:49.0115	1,3705294E-001	1,9616695E-002
02/09/2025 19:23:52.2115	1,6250826E-001	1,8096350E-002
02/09/2025 19:23:55.4115	1,3068911E-001	1,6600605E-002
02/09/2025 19:23:58.6115	1,8159975E-001	1,5271717E-002
02/09/2025 19:24:01.8115	1,4341676E-001	1,4102348E-002
02/09/2025 19:24:05.0115	1,3705294E-001	1,2981609E-002
02/09/2025 19:24:08.2115	1,1796144E-001	1,1991857E-002
02/09/2025 19:24:11.4115	9,8869957E-002	1,1091988E-002
02/09/2025 19:24:14.6115	1,1796144E-001	1,0252818E-002
02/09/2025 19:24:17.8115	1,2432528E-001	9,5326025E-003
02/09/2025 19:24:21.0115	1,1159762E-001	8,8816807E-003
02/09/2025 19:24:24.1117	-2,9131360E+002	-1,1916886E-001
02/09/2025 19:24:27.3117	-2,9130722E+002	-1,4312336E-001
02/09/2025 19:24:30.5117	-2,9138995E+002	-1,6160877E-001
02/09/2025 19:24:33.7117	-2,9131360E+002	-1,7808703E-001
02/09/2025 19:24:36.9117	-2,9135812E+002	-1,9302851E-001
02/09/2025 19:24:40.1117	-2,9136447E+002	-2,0655106E-001
02/09/2025 19:24:43.3117	-2,9137723E+002	-2,1979690E-001
02/09/2025 19:24:46.5117	-2,9132629E+002	-2,3168500E-001
02/09/2025 19:24:49.7117	-2,9130084E+002	-2,4270843E-001
02/09/2025 19:24:52.9117	-2,9132629E+002	-2,5423232E-001
02/09/2025 19:24:56.1117	-2,9132629E+002	-2,6388034E-001
02/09/2025 19:24:59.3117	-2,9137723E+002	-2,7314973E-001
02/09/2025 19:25:02.5117	-2,9142816E+002	-2,8259018E-001
02/09/2025 19:25:05.7117	-2,9140268E+002	-2,9053262E-001
02/09/2025 19:25:08.9117	-2,9135812E+002	-2,9903662E-001
02/09/2025 19:25:12.1117	-2,9134540E+002	-3,0693904E-001
02/09/2025 19:25:15.3117	-2,9127539E+002	-3,1383595E-001
02/09/2025 19:25:18.5117	-2,9133902E+002	-3,2237101E-001
02/09/2025 19:25:21.7117	-2,9131995E+002	-3,2937935E-001
02/09/2025 19:25:24.9117	-2,9129449E+002	-3,3693114E-001
02/09/2025 19:25:28.1117	-2,9130722E+002	-3,4694001E-001
02/09/2025 19:25:31.3117	-2,9138995E+002	-3,5697970E-001
02/09/2025 19:25:34.5117	-2,9134540E+002	-3,7071890E-001
02/09/2025 19:25:37.7117	-2,9129449E+002	-3,8666329E-001
02/09/2025 19:25:40.9117	-2,9127539E+002	-4,0110970E-001
02/09/2025 19:25:44.1117	-2,9129449E+002	-4,1817075E-001
02/09/2025 19:25:47.3117	-2,9136447E+002	-4,3377393E-001
02/09/2025 19:25:50.5117	-2,9142175E+002	-4,4833565E-001
02/09/2025 19:25:53.7117	-2,9128177E+002	-4,6869835E-001
02/09/2025 19:25:56.9117	-2,9132629E+002	-4,8456746E-001
02/09/2025 19:26:00.1117	-2,9134540E+002	-5,0272578E-001
02/09/2025 19:26:03.3117	-2,9128177E+002	-5,2686310E-001
02/09/2025 19:26:06.5117	-2,9133267E+002	-5,4296219E-001
02/09/2025 19:26:09.7117	-2,9132629E+002	-5,7363898E-001
02/09/2025 19:26:12.9117	-2,9131360E+002	-5,9142250E-001
02/09/2025 19:26:16.1117	-2,9138995E+002	-6,0777879E-001
02/09/2025 19:26:19.3117	-2,9137723E+002	-6,5425181E-001
02/09/2025 19:26:22.4119	3,1816940E+002	-5,5878129E-002
02/09/2025 19:26:25.6119	3,1819489E+002	1,7687615E-002
02/09/2025 19:26:28.8119	3,1822031E+002	5,2458033E-002
02/09/2025 19:26:32.0119	3,1813126E+002	7,7314958E-002
02/09/2025 19:26:35.2119	3,1818851E+002	9,8206758E-002
02/09/2025 19:26:38.4119	3,1812488E+002	1,1630177E-001
02/09/2025 19:26:41.6119	3,1818216E+002	1,3290285E-001
02/09/2025 19:26:44.8119	3,1818851E+002	1,4907351E-001
02/09/2025 19:26:48.0119	3,1809943E+002	1,6403307E-001
02/09/2025 19:26:51.2119	3,1817581E+002	1,7879459E-001
02/09/2025 19:26:54.4119	3,1815671E+002	1,9372469E-001
02/09/2025 19:26:57.6119	3,1822031E+002	2,0779800E-001
02/09/2025 19:27:00.8119	3,1809943E+002	2,2205812E-001
02/09/2025 19:27:04.0119	3,1809943E+002	2,3622736E-001
02/09/2025 19:27:07.2119	3,1815671E+002	2,5001323E-001
02/09/2025 19:27:10.4119	3,1823941E+002	2,6410964E-001
02/09/2025 19:27:13.6119	3,1822031E+002	2,7765450E-001
02/09/2025 19:27:16.8119	3,1820761E+002	2,9070324E-001
02/09/2025 19:27:20.0119	3,1811215E+002	3,0443594E-001
02/09/2025 19:27:23.2119	3,1814395E+002	3,1682047E-001
02/09/2025 19:27:26.4119	3,1813760E+002	3,2903025E-001
02/09/2025 19:27:29.6119	3,1819489E+002	3,4220681E-001
02/09/2025 19:27:32.8119	3,1822031E+002	3,5409209E-001
02/09/2025 19:27:36.0119	3,1815671E+002	3,6695418E-001
02/09/2025 19:27:39.2119	3,1815033E+002	3,8104326E-001
02/09/2025 19:27:42.4119	3,1822031E+002	3,9768800E-001
02/09/2025 19:27:45.6119	3,1811215E+002	4,3591636E-001
02/09/2025 19:27:48.8119	3,1808667E+002	4,7836030E-001
02/09/2025 19:27:52.0119	3,1816940E+002	5,1827002E-001
02/09/2025 19:27:55.2119	3,1815671E+002	5,7107514E-001
02/09/2025 19:27:58.4119	3,1813126E+002	6,1721200E-001
02/09/2025 19:28:01.6119	3,1821399E+002	6,8113989E-001
02/09/2025 19:28:04.8119	3,1817581E+002	7,4910021E-001
02/09/2025 19:28:07.8187	-3,1788892E+002	7,4611373E-002
02/09/2025 19:28:11.0187	-3,1783163E+002	-1,1028315E-002
02/09/2025 19:28:14.2187	-3,1786984E+002	-4,6966456E-002
02/09/2025 19:28:17.4187	-3,1789529E+002	-7,2405122E-002
02/09/2025 19:28:20.6187	-3,1785712E+002	-9,3390442E-002
02/09/2025 19:28:23.8187	-3,1791440E+002	-1,1121359E-001
02/09/2025 19:28:27.0187	-3,1779984E+002	-1,2764141E-001
02/09/2025 19:28:30.2187	-3,1783801E+002	-1,4342368E-001
02/09/2025 19:28:33.4187	-3,1788254E+002	-1,5788777E-001
02/09/2025 19:28:36.6187	-3,1784433E+002	-1,7219786E-001
02/09/2025 19:28:39.8187	-3,1779984E+002	-1,8635030E-001
02/09/2025 19:28:43.0187	-3,1786984E+002	-1,9981742E-001
02/09/2025 19:28:46.2187	-3,1786984E+002	-2,1351352E-001
02/09/2025 19:28:49.4187	-3,1785712E+002	-2,2677658E-001
02/09/2025 19:28:52.6187	-3,1783163E+002	-2,3962343E-001
02/09/2025 19:28:55.8187	-3,1784433E+002	-2,5323492E-001
02/09/2025 19:28:59.0187	-3,1785074E+002	-2,6572090E-001
02/09/2025 19:29:02.2187	-3,1786984E+002	-2,7793092E-001
02/09/2025 19:29:05.4187	-3,1785712E+002	-2,9084465E-001
02/09/2025 19:29:08.6187	-3,1786346E+002	-3,0232003E-001
02/09/2025 19:29:11.8187	-3,1781256E+002	-3,1420764E-001
02/09/2025 19:29:15.0187	-3,1790161E+002	-3,2597864E-001
02/09/2025 19:29:18.2187	-3,1788892E+002	-3,3661970E-001
02/09/2025 19:29:21.4187	-3,1790161E+002	-3,4846255E-001
02/09/2025 19:29:24.6187	-3,1784433E+002	-3,5946640E-001
02/09/2025 19:29:27.8187	-3,1784433E+002	-3,7077937E-001
02/09/2025 19:29:31.0187	-3,1779346E+002	-3,8563895E-001
02/09/2025 19:29:34.2187	-3,1786984E+002	-4,0282270E-001
02/09/2025 19:29:37.4187	-3,1788254E+002	-4,3132010E-001
02/09/2025 19:29:40.6187	-3,1790161E+002	-4,6873996E-001
02/09/2025 19:29:43.8187	-3,1788254E+002	-5,0237739E-001
02/09/2025 19:29:47.0187	-3,1788254E+002	-5,4535979E-001
02/09/2025 19:29:50.2187	-3,1793347E+002	-5,8831513E-001
02/09/2025 19:29:53.4187	-3,1786346E+002	-6,2721586E-001
02/09/2025 19:29:56.6187	-3,1788254E+002	-6,9803339E-001
02/09/2025 19:29:59.8187	-3,1783801E+002	-7,3600924E-001
02/09/2025 19:30:03.0187	-3,1785074E+002	-7,9258901E-001
02/09/2025 19:30:03.0423	1,6140183E-002	-6,6618997E-001