File: data/phase_2a/Sergey/2/8.3/01 eis/SN50_C6aD1E1_mr 0,1MFeCN6_in_1M_KCl_3306mL_symmetric_balanced_4_point_PEIS_10mHz_200kHz_10mV_C16.txt
time/s	freq/Hz	Re(Z)/Ohm	-Im(Z)/Ohm
30/08/2025 19:53:28.9325	1,9999814E+005	2,9203176E-001	-3,5698049E-002
30/08/2025 19:53:29.3665	1,5885727E+005	3,0447522E-001	-2,4911543E-002
30/08/2025 19:53:29.8005	1,2618765E+005	3,1258968E-001	-1,8301925E-002
30/08/2025 19:53:30.0945	1,0022640E+005	3,1583816E-001	-1,3285501E-002
30/08/2025 19:53:31.7885	7,9609563E+004	3,1721997E-001	-9,9679604E-003
30/08/2025 19:53:33.4825	6,3233004E+004	3,1799281E-001	-7,6739411E-003
30/08/2025 19:53:34.7565	5,0224539E+004	3,1849429E-001	-6,0331938E-003
30/08/2025 19:53:35.4705	3,9897566E+004	3,1887171E-001	-4,3376284E-003
30/08/2025 19:53:35.9045	3,1686090E+004	3,1936339E-001	-3,1726628E-003
30/08/2025 19:53:36.3385	2,5172580E+004	3,1955403E-001	-1,9502273E-003
30/08/2025 19:53:36.7735	1,9995176E+004	3,1977811E-001	-1,1256036E-003
30/08/2025 19:53:37.2075	1,5884798E+004	3,2002217E-001	-3,6611606E-004
30/08/2025 19:53:37.6415	1,2618766E+004	3,2019338E-001	2,6694214E-004
30/08/2025 19:53:38.0755	1,0020785E+004	3,2039937E-001	8,3509303E-004
30/08/2025 19:53:38.5677	7,9597607E+003	3,2098043E-001	1,1662657E-003
30/08/2025 19:53:39.1493	6,3238188E+003	3,2121798E-001	1,5022798E-003
30/08/2025 19:53:39.6197	5,0216069E+003	3,2157585E-001	2,0832394E-003
30/08/2025 19:53:40.3119	3,9861731E+003	3,2179376E-001	2,0164526E-003
30/08/2025 19:53:40.7790	3,1669595E+003	3,2212925E-001	2,3723338E-003
30/08/2025 19:53:41.2447	2,5158047E+003	3,2270584E-001	2,6918335E-003
30/08/2025 19:53:41.7129	1,9980818E+003	3,2298142E-001	2,8432629E-003
30/08/2025 19:53:42.1799	1,5884750E+003	3,2357493E-001	3,1217437E-003
30/08/2025 19:53:42.6457	1,2604036E+003	3,2386607E-001	3,2842697E-003
30/08/2025 19:53:43.1124	1,0016024E+003	3,2458115E-001	3,3783768E-003
30/08/2025 19:53:43.5797	7,9525409E+002	3,2475930E-001	3,4942382E-003
30/08/2025 19:53:44.0462	6,3181964E+002	3,2543808E-001	3,8431576E-003
30/08/2025 19:53:44.5129	5,0208865E+002	3,2589406E-001	4,0662196E-003
30/08/2025 19:53:44.9805	3,9859698E+002	3,2671475E-001	4,2738384E-003
30/08/2025 19:53:45.4457	3,1672299E+002	3,2733446E-001	4,5837387E-003
30/08/2025 19:53:45.9104	2,5169135E+002	3,2799056E-001	4,7243801E-003
30/08/2025 19:53:46.3790	1,9980818E+002	3,2861730E-001	5,0721979E-003
30/08/2025 19:53:46.8485	1,5862943E+002	3,2920280E-001	5,1879999E-003
30/08/2025 19:53:47.3132	1,2600809E+002	3,3006504E-001	5,5592675E-003
30/08/2025 19:53:47.7805	1,0016024E+002	3,3080256E-001	5,8212867E-003
30/08/2025 19:53:48.2520	7,9516548E+001	3,3182567E-001	6,1979503E-003
30/08/2025 19:53:48.7306	6,3160763E+001	3,3255133E-001	6,4889323E-003
30/08/2025 19:53:49.1969	5,0208866E+001	3,3369806E-001	6,8031675E-003
30/08/2025 19:53:49.6645	3,9859695E+001	3,3456919E-001	7,1588643E-003
30/08/2025 19:53:50.1102	3,1672298E+001	3,3555874E-001	7,4289101E-003
30/08/2025 19:53:50.5756	2,5136747E+001	3,3685800E-001	7,9363976E-003
30/08/2025 19:53:51.0440	1,9980818E+001	3,3790404E-001	8,3122971E-003
30/08/2025 19:53:51.4879	1,5857577E+001	3,3905429E-001	8,7335324E-003
30/08/2025 19:53:52.0348	1,2600809E+001	3,4029412E-001	9,2785917E-003
30/08/2025 19:53:52.5004	1,0016025E+001	3,4148562E-001	9,6820761E-003
30/08/2025 19:53:53.0752	7,9557004E+000	3,4304968E-001	1,0323093E-002
30/08/2025 19:53:53.4552	6,3105812E+000	3,4450084E-001	1,0921408E-002
30/08/2025 19:53:53.9232	5,0144420E+000	3,4591848E-001	1,1270355E-002
30/08/2025 19:53:54.4967	3,9859698E+000	3,4758747E-001	1,1866257E-002
30/08/2025 19:53:55.2047	3,1655185E+000	3,4895059E-001	1,2590135E-002
30/08/2025 19:53:56.0827	2,5136747E+000	3,5093462E-001	1,3293189E-002
30/08/2025 19:53:57.1757	1,9970603E+000	3,5240847E-001	1,4452423E-002
30/08/2025 19:53:58.5421	1,5846856E+000	3,5364357E-001	1,5325428E-002
30/08/2025 19:54:01.0939	1,2596742E+000	3,5582516E-001	1,5951168E-002
30/08/2025 19:54:03.2321	1,0000639E+000	3,5673377E-001	1,8568927E-002
30/08/2025 19:54:05.9143	7,9443753E-001	3,5871866E-001	2,0738769E-002
30/08/2025 19:54:09.2787	6,3126212E-001	3,6097524E-001	2,3608524E-002
30/08/2025 19:54:13.5090	5,0118679E-001	3,6364672E-001	2,7083008E-002
30/08/2025 19:54:18.8166	3,9867833E-001	3,6611414E-001	3,1144518E-002
30/08/2025 19:54:25.4971	3,1619310E-001	3,6965120E-001	3,5360973E-002
30/08/2025 19:54:33.8988	2,5117347E-001	3,7423158E-001	4,0461186E-002
30/08/2025 19:54:44.4498	1,9980818E-001	3,7927315E-001	4,6886243E-002
30/08/2025 19:54:57.7437	1,5846856E-001	3,8450149E-001	5,3821411E-002
30/08/2025 19:55:14.4676	1,2590654E-001	3,9090976E-001	6,0614374E-002
30/08/2025 19:55:35.4880	1,0013975E-001	3,9944020E-001	6,8244562E-002
30/08/2025 19:56:01.9826	7,9421178E-002	4,0956160E-001	7,7690229E-002
30/08/2025 19:56:35.3235	6,3101739E-002	4,2045546E-001	8,7909192E-002
30/08/2025 19:57:17.2622	5,0154075E-002	4,3204457E-001	9,7518153E-002
30/08/2025 19:58:10.0973	3,9804459E-002	4,4695672E-001	1,0734198E-001
30/08/2025 19:59:16.6584	3,1592205E-002	4,6596950E-001	1,1923687E-001
30/08/2025 20:00:40.2777	2,5144994E-002	4,8748669E-001	1,3108496E-001
30/08/2025 20:02:25.6668	1,9949391E-002	5,1067919E-001	1,3940088E-001
30/08/2025 20:04:38.2157	1,5860692E-002	5,3459430E-001	1,4495340E-001
30/08/2025 20:07:25.3660	1,2576789E-002	5,6237322E-001	1,4892678E-001
30/08/2025 20:10:55.3858	1,0009170E-002	5,9248215E-001	1,4952813E-001
30/08/2025 20:10:56.2215	1,9999814E+005	2,9574382E-001	-3,9123990E-002
30/08/2025 20:10:56.6555	1,5885727E+005	3,0657417E-001	-2,7708210E-002
30/08/2025 20:10:57.0895	1,2618765E+005	3,1165633E-001	-2,0043656E-002
30/08/2025 20:10:57.3835	1,0022640E+005	3,1420749E-001	-1,4329439E-002
30/08/2025 20:10:58.3785	7,9609563E+004	3,1543255E-001	-1,1129547E-002
30/08/2025 20:10:59.3725	6,3233004E+004	3,1636918E-001	-8,5824030E-003
30/08/2025 20:11:00.2265	5,0224539E+004	3,1700650E-001	-6,1430293E-003
30/08/2025 20:11:00.9405	3,9897566E+004	3,1735641E-001	-4,5369887E-003
30/08/2025 20:11:01.3745	3,1686090E+004	3,1768048E-001	-3,2300525E-003
30/08/2025 20:11:01.8085	2,5172580E+004	3,1787568E-001	-2,1618663E-003
30/08/2025 20:11:02.2425	1,9995176E+004	3,1817967E-001	-1,2513353E-003
30/08/2025 20:11:02.6765	1,5884798E+004	3,1826144E-001	-5,0057709E-004
30/08/2025 20:11:03.1105	1,2618766E+004	3,1850749E-001	3,0375252E-004
30/08/2025 20:11:03.5455	1,0020785E+004	3,1879243E-001	8,0196990E-004
30/08/2025 20:11:04.0378	7,9597607E+003	3,1923300E-001	1,2168508E-003
30/08/2025 20:11:04.6194	6,3238188E+003	3,1959501E-001	1,4315657E-003
30/08/2025 20:11:05.0887	5,0216069E+003	3,1973654E-001	1,7214967E-003
30/08/2025 20:11:05.7810	3,9861731E+003	3,2015967E-001	2,1352528E-003
30/08/2025 20:11:06.2470	3,1669595E+003	3,2052207E-001	2,2786350E-003
30/08/2025 20:11:06.7127	2,5158047E+003	3,2088420E-001	2,4780191E-003
30/08/2025 20:11:07.1800	1,9980818E+003	3,2140145E-001	2,7063042E-003
30/08/2025 20:11:07.6470	1,5884750E+003	3,2186779E-001	2,8068961E-003
30/08/2025 20:11:08.1127	1,2604036E+003	3,2221609E-001	3,1915188E-003
30/08/2025 20:11:08.5795	1,0016024E+003	3,2282171E-001	3,5030169E-003
30/08/2025 20:11:09.0478	7,9525409E+002	3,2323775E-001	3,5508280E-003
30/08/2025 20:11:09.5142	6,3181964E+002	3,2378861E-001	3,6964209E-003
30/08/2025 20:11:09.9810	5,0208865E+002	3,2438278E-001	3,9653718E-003
30/08/2025 20:11:10.4485	3,9859698E+002	3,2488763E-001	4,2939805E-003
30/08/2025 20:11:10.9137	3,1672299E+002	3,2563090E-001	4,4397707E-003
30/08/2025 20:11:11.3785	2,5169135E+002	3,2619321E-001	4,7320849E-003
30/08/2025 20:11:11.8470	1,9980818E+002	3,2698455E-001	4,9866955E-003
30/08/2025 20:11:12.3166	1,5862943E+002	3,2786161E-001	5,1777903E-003
30/08/2025 20:11:12.7812	1,2600809E+002	3,2857442E-001	5,6043719E-003
30/08/2025 20:11:13.2485	1,0016024E+002	3,2922184E-001	5,8993306E-003
30/08/2025 20:11:13.7190	7,9516548E+001	3,3020386E-001	6,0284608E-003
30/08/2025 20:11:14.1996	6,3160763E+001	3,3103558E-001	6,3316547E-003
30/08/2025 20:11:14.6660	5,0208866E+001	3,3178633E-001	6,7509175E-003
30/08/2025 20:11:15.1335	3,9859695E+001	3,3279639E-001	7,1810139E-003
30/08/2025 20:11:15.5793	3,1672298E+001	3,3372599E-001	7,4815014E-003
30/08/2025 20:11:16.0447	2,5136747E+001	3,3487096E-001	7,8538703E-003
30/08/2025 20:11:16.5120	1,9980818E+001	3,3610711E-001	8,4096128E-003
30/08/2025 20:11:16.9560	1,5857577E+001	3,3738935E-001	8,6169951E-003
30/08/2025 20:11:17.5029	1,2600809E+001	3,3855435E-001	9,2035132E-003
30/08/2025 20:11:17.9685	1,0016025E+001	3,3993608E-001	9,5658153E-003
30/08/2025 20:11:18.5432	7,9557004E+000	3,4133148E-001	1,0094500E-002
30/08/2025 20:11:18.9232	6,3105812E+000	3,4296700E-001	1,0722591E-002
30/08/2025 20:11:19.3923	5,0144420E+000	3,4414315E-001	1,1243223E-002
30/08/2025 20:11:19.9657	3,9859698E+000	3,4574312E-001	1,1833524E-002
30/08/2025 20:11:20.6738	3,1655185E+000	3,4721780E-001	1,2318758E-002
30/08/2025 20:11:21.5518	2,5136747E+000	3,4852418E-001	1,3452395E-002
30/08/2025 20:11:22.6437	1,9970603E+000	3,5028955E-001	1,3896021E-002
30/08/2025 20:11:24.0101	1,5846856E+000	3,5176215E-001	1,5330793E-002
30/08/2025 20:11:26.5610	1,2596742E+000	3,5280138E-001	1,7283989E-002
30/08/2025 20:11:28.6991	1,0000639E+000	3,5564300E-001	1,8850839E-002
30/08/2025 20:11:31.3802	7,9443753E-001	3,5692066E-001	2,1031812E-002
30/08/2025 20:11:34.7456	6,3126212E-001	3,5904565E-001	2,3667166E-002
30/08/2025 20:11:38.9733	5,0118679E-001	3,6169603E-001	2,6825808E-002
30/08/2025 20:11:44.2803	3,9867833E-001	3,6463729E-001	3,1029036E-002
30/08/2025 20:11:50.9618	3,1619310E-001	3,6780658E-001	3,5644431E-002
30/08/2025 20:11:59.3624	2,5117347E-001	3,7185577E-001	4,0389918E-002
30/08/2025 20:12:09.9144	1,9980818E-001	3,7725621E-001	4,6235379E-002
30/08/2025 20:12:23.2094	1,5846856E-001	3,8324672E-001	5,3440753E-002
30/08/2025 20:12:39.9344	1,2590654E-001	3,8942793E-001	6,1148345E-002
30/08/2025 20:13:00.9548	1,0013975E-001	3,9698571E-001	6,8625852E-002
30/08/2025 20:13:27.4495	7,9421178E-002	4,0708652E-001	7,7024758E-002
30/08/2025 20:14:00.7894	6,3101739E-002	4,1862136E-001	8,6999148E-002
30/08/2025 20:14:42.7281	5,0154075E-002	4,3121433E-001	9,7816870E-002
30/08/2025 20:15:35.5632	3,9804459E-002	4,4485730E-001	1,0832801E-001
30/08/2025 20:16:42.1242	3,1592205E-002	4,6292716E-001	1,1890659E-001
30/08/2025 20:18:05.7436	2,5144994E-002	4,8564160E-001	1,2967211E-001
30/08/2025 20:19:51.1326	1,9949391E-002	5,0995409E-001	1,3847023E-001
30/08/2025 20:22:03.6815	1,5860692E-002	5,3390759E-001	1,4509028E-001
30/08/2025 20:24:50.8319	1,2576789E-002	5,6087917E-001	1,4937015E-001
30/08/2025 20:28:20.8526	1,0009170E-002	5,9112495E-001	1,4949198E-001
30/08/2025 20:28:21.6886	1,9999814E+005	2,9772162E-001	-3,9115354E-002
30/08/2025 20:28:22.1236	1,5885727E+005	3,0567768E-001	-2,8177124E-002
30/08/2025 20:28:22.5576	1,2618765E+005	3,1068754E-001	-2,0055812E-002
30/08/2025 20:28:22.8516	1,0022640E+005	3,1330624E-001	-1,4438015E-002
30/08/2025 20:28:23.7056	7,9609563E+004	3,1453869E-001	-1,1156270E-002
30/08/2025 20:28:24.5596	6,3233004E+004	3,1532347E-001	-8,3823856E-003
30/08/2025 20:28:25.4146	5,0224539E+004	3,1579781E-001	-6,2115211E-003
30/08/2025 20:28:26.1296	3,9897566E+004	3,1623343E-001	-4,5812940E-003
30/08/2025 20:28:26.5636	3,1686090E+004	3,1668487E-001	-3,3289988E-003
30/08/2025 20:28:26.9976	2,5172580E+004	3,1696853E-001	-2,1829223E-003
30/08/2025 20:28:27.4316	1,9995176E+004	3,1713730E-001	-1,2051763E-003
30/08/2025 20:28:27.8666	1,5884798E+004	3,1738716E-001	-4,1760955E-004
30/08/2025 20:28:28.3006	1,2618766E+004	3,1742039E-001	2,1434165E-004
30/08/2025 20:28:28.7346	1,0020785E+004	3,1779975E-001	7,5747725E-004
30/08/2025 20:28:29.2258	7,9597607E+003	3,1830564E-001	1,2760672E-003
30/08/2025 20:28:29.8074	6,3238188E+003	3,1861410E-001	1,5345082E-003
30/08/2025 20:28:30.2768	5,0216069E+003	3,1874150E-001	1,8376668E-003
30/08/2025 20:28:30.7440	3,9861731E+003	3,1902805E-001	2,3111529E-003
30/08/2025 20:28:31.4340	3,1669595E+003	3,1949729E-001	2,3807986E-003
30/08/2025 20:28:31.8998	2,5158047E+003	3,1982645E-001	2,5545533E-003
30/08/2025 20:28:32.3670	1,9980818E+003	3,2034159E-001	2,5459290E-003
30/08/2025 20:28:32.8330	1,5884750E+003	3,2080415E-001	2,9227226E-003
30/08/2025 20:28:33.2988	1,2604036E+003	3,2129028E-001	3,0344271E-003
30/08/2025 20:28:33.7655	1,0016024E+003	3,2182950E-001	3,2885091E-003
30/08/2025 20:28:34.2328	7,9525409E+002	3,2233626E-001	3,7785165E-003
30/08/2025 20:28:34.7003	6,3181964E+002	3,2279131E-001	3,8499439E-003
30/08/2025 20:28:35.1660	5,0208865E+002	3,2332146E-001	4,0791365E-003
30/08/2025 20:28:35.6335	3,9859698E+002	3,2385379E-001	4,2404975E-003
30/08/2025 20:28:36.0988	3,1672299E+002	3,2456321E-001	4,4932254E-003
30/08/2025 20:28:36.5635	2,5169135E+002	3,2512376E-001	4,6384204E-003
30/08/2025 20:28:37.0321	1,9980818E+002	3,2588038E-001	4,9957158E-003
30/08/2025 20:28:37.5016	1,5862943E+002	3,2660091E-001	5,2852463E-003
30/08/2025 20:28:37.9663	1,2600809E+002	3,2743436E-001	5,4508676E-003
30/08/2025 20:28:38.4335	1,0016024E+002	3,2829696E-001	5,8723860E-003
30/08/2025 20:28:38.9041	7,9516548E+001	3,2901043E-001	6,0586338E-003
30/08/2025 20:28:39.3827	6,3160763E+001	3,2976589E-001	6,4232480E-003
30/08/2025 20:28:39.8480	5,0208866E+001	3,3063045E-001	6,8555172E-003
30/08/2025 20:28:40.3156	3,9859695E+001	3,3166569E-001	7,0966147E-003
30/08/2025 20:28:40.7613	3,1672298E+001	3,3283037E-001	7,5818184E-003
30/08/2025 20:28:41.2267	2,5136747E+001	3,3384910E-001	7,7969832E-003
30/08/2025 20:28:41.6940	1,9980818E+001	3,3497065E-001	8,3514303E-003
30/08/2025 20:28:42.1380	1,5857577E+001	3,3606422E-001	8,6125629E-003
30/08/2025 20:28:42.6850	1,2600809E+001	3,3743086E-001	9,1268644E-003
30/08/2025 20:28:43.1505	1,0016025E+001	3,3863115E-001	9,6343020E-003
30/08/2025 20:28:43.7243	7,9557004E+000	3,4008363E-001	1,0250488E-002
30/08/2025 20:28:44.1043	6,3105812E+000	3,4155101E-001	1,0586727E-002
30/08/2025 20:28:44.5733	5,0144420E+000	3,4298450E-001	1,1297988E-002
30/08/2025 20:28:45.1468	3,9859698E+000	3,4467506E-001	1,1699440E-002
30/08/2025 20:28:45.8548	3,1655185E+000	3,4599039E-001	1,2644093E-002
30/08/2025 20:28:46.7328	2,5136747E+000	3,4748927E-001	1,3206923E-002
30/08/2025 20:28:47.8258	1,9970603E+000	3,4892571E-001	1,4375992E-002
30/08/2025 20:28:49.1922	1,5846856E+000	3,5064545E-001	1,5186635E-002
30/08/2025 20:28:51.7442	1,2596742E+000	3,5261241E-001	1,7706994E-002
30/08/2025 20:28:53.8833	1,0000639E+000	3,5418740E-001	1,8227285E-002
30/08/2025 20:28:56.5652	7,9443753E-001	3,5601988E-001	2,0595210E-002
30/08/2025 20:28:59.9310	6,3126212E-001	3,5825673E-001	2,3543039E-002
30/08/2025 20:29:04.1602	5,0118679E-001	3,6051625E-001	2,7298892E-002
30/08/2025 20:29:09.4667	3,9867833E-001	3,6299771E-001	3,0857131E-002
30/08/2025 20:29:16.1480	3,1619310E-001	3,6686456E-001	3,5119932E-002
30/08/2025 20:29:24.5497	2,5117347E-001	3,7132430E-001	4,0691748E-002
30/08/2025 20:29:35.1027	1,9980818E-001	3,7578383E-001	4,6930213E-002
30/08/2025 20:29:48.3976	1,5846856E-001	3,8118815E-001	5,3225271E-002
30/08/2025 20:30:05.1226	1,2590654E-001	3,8836694E-001	6,0011372E-002
30/08/2025 20:30:26.1428	1,0013975E-001	3,9707100E-001	6,8428293E-002
30/08/2025 20:30:52.6385	7,9421178E-002	4,0640864E-001	7,8230582E-002
30/08/2025 20:31:25.9783	6,3101739E-002	4,1696009E-001	8,8045001E-002
30/08/2025 20:32:07.9171	5,0154075E-002	4,2919978E-001	9,6607208E-002
30/08/2025 20:33:00.7511	3,9804459E-002	4,4485781E-001	1,0714529E-001
30/08/2025 20:34:07.3111	3,1592205E-002	4,6305069E-001	1,1989632E-001
30/08/2025 20:35:30.9295	2,5144994E-002	4,8363721E-001	1,3081299E-001
30/08/2025 20:37:16.3185	1,9949391E-002	5,0740135E-001	1,3787133E-001
30/08/2025 20:39:28.8675	1,5860692E-002	5,3283137E-001	1,4325272E-001
30/08/2025 20:42:16.0178	1,2576789E-002	5,6155169E-001	1,4847893E-001
30/08/2025 20:45:46.0386	1,0009170E-002	5,9157306E-001	1,5000989E-001
30/08/2025 20:45:46.8746	1,9999814E+005	2,8825819E-001	-2,9858131E-002
30/08/2025 20:45:47.3086	1,5885727E+005	3,0056465E-001	-2,0751661E-002
30/08/2025 20:45:47.7426	1,2618765E+005	3,0842167E-001	-1,5427446E-002
30/08/2025 20:45:48.0376	1,0022640E+005	3,1273276E-001	-1,1933587E-002
30/08/2025 20:45:49.7316	7,9609563E+004	3,1438747E-001	-9,3015106E-003
30/08/2025 20:45:51.4256	6,3233004E+004	3,1504056E-001	-7,0555247E-003
30/08/2025 20:45:53.1196	5,0224539E+004	3,1546617E-001	-5,2910815E-003
30/08/2025 20:45:53.8336	3,9897566E+004	3,1599361E-001	-3,9681969E-003
30/08/2025 20:45:54.2676	3,1686090E+004	3,1619903E-001	-2,7561130E-003
30/08/2025 20:45:54.7016	2,5172580E+004	3,1652722E-001	-1,6450785E-003
30/08/2025 20:45:55.1356	1,9995176E+004	3,1654948E-001	-1,0815831E-003
30/08/2025 20:45:55.5706	1,5884798E+004	3,1683326E-001	-3,6294351E-004
30/08/2025 20:45:56.0046	1,2618766E+004	3,1724772E-001	1,4507085E-004
30/08/2025 20:45:56.4396	1,0020785E+004	3,1743810E-001	7,9063501E-004
30/08/2025 20:45:56.9309	7,9597607E+003	3,1780341E-001	1,1185580E-003
30/08/2025 20:45:57.5124	6,3238188E+003	3,1815806E-001	1,4098322E-003
30/08/2025 20:45:57.9818	5,0216069E+003	3,1838763E-001	1,8260616E-003
30/08/2025 20:45:58.6731	3,9861731E+003	3,1872153E-001	2,0238650E-003
30/08/2025 20:45:59.1391	3,1669595E+003	3,1920907E-001	2,3239187E-003
30/08/2025 20:45:59.6048	2,5158047E+003	3,1946945E-001	2,5841659E-003
30/08/2025 20:46:00.0721	1,9980818E+003	3,1989193E-001	2,9998608E-003
30/08/2025 20:46:00.5391	1,5884750E+003	3,2032034E-001	2,9679309E-003
30/08/2025 20:46:01.0048	1,2604036E+003	3,2068074E-001	3,2595089E-003
30/08/2025 20:46:01.4716	1,0016024E+003	3,2107434E-001	3,3577145E-003
30/08/2025 20:46:01.9389	7,9525409E+002	3,2170084E-001	3,5365627E-003
30/08/2025 20:46:02.4053	6,3181964E+002	3,2242423E-001	3,7444655E-003
30/08/2025 20:46:02.8721	5,0208865E+002	3,2298216E-001	3,9371112E-003
30/08/2025 20:46:03.3396	3,9859698E+002	3,2330099E-001	4,2428686E-003
30/08/2025 20:46:03.8048	3,1672299E+002	3,2397795E-001	4,6163546E-003
30/08/2025 20:46:04.2696	2,5169135E+002	3,2458800E-001	4,7813309E-003
30/08/2025 20:46:04.7381	1,9980818E+002	3,2534939E-001	4,7958586E-003
30/08/2025 20:46:05.2076	1,5862943E+002	3,2595211E-001	5,2236374E-003
30/08/2025 20:46:05.6723	1,2600809E+002	3,2688308E-001	5,4482874E-003
30/08/2025 20:46:06.1396	1,0016024E+002	3,2768789E-001	5,7935566E-003
30/08/2025 20:46:06.6101	7,9516548E+001	3,2848662E-001	6,1361268E-003
30/08/2025 20:46:07.0887	6,3160763E+001	3,2918552E-001	6,5428955E-003
30/08/2025 20:46:07.5551	5,0208866E+001	3,3025250E-001	6,6735558E-003
30/08/2025 20:46:08.0226	3,9859695E+001	3,3120251E-001	7,1099186E-003
30/08/2025 20:46:08.4684	3,1672298E+001	3,3237132E-001	7,2903526E-003
30/08/2025 20:46:08.9338	2,5136747E+001	3,3319920E-001	7,9183895E-003
30/08/2025 20:46:09.4021	1,9980818E+001	3,3453417E-001	8,1739193E-003
30/08/2025 20:46:09.8461	1,5857577E+001	3,3575857E-001	8,6290594E-003
30/08/2025 20:46:10.3930	1,2600809E+001	3,3688593E-001	9,0948194E-003
30/08/2025 20:46:10.8586	1,0016025E+001	3,3823949E-001	9,6283238E-003
30/08/2025 20:46:11.4333	7,9557004E+000	3,3947408E-001	1,0049079E-002
30/08/2025 20:46:11.8133	6,3105812E+000	3,4118670E-001	1,0680661E-002
30/08/2025 20:46:12.2823	5,0144420E+000	3,4252667E-001	1,1215186E-002
30/08/2025 20:46:12.8558	3,9859698E+000	3,4396631E-001	1,1611738E-002
30/08/2025 20:46:13.5639	3,1655185E+000	3,4566000E-001	1,2464791E-002
30/08/2025 20:46:14.4419	2,5136747E+000	3,4735879E-001	1,3294658E-002
30/08/2025 20:46:15.5338	1,9970603E+000	3,4862432E-001	1,3864572E-002
30/08/2025 20:46:16.9012	1,5846856E+000	3,5029346E-001	1,5335391E-002
30/08/2025 20:46:19.4532	1,2596742E+000	3,5084528E-001	1,6580563E-002
30/08/2025 20:46:21.5913	1,0000639E+000	3,5361382E-001	1,8580843E-002
30/08/2025 20:46:24.2733	7,9443753E-001	3,5554007E-001	2,0740472E-002
30/08/2025 20:46:27.6387	6,3126212E-001	3,5747784E-001	2,3854403E-002
30/08/2025 20:46:31.8673	5,0118679E-001	3,5958809E-001	2,6922191E-002
30/08/2025 20:46:37.1744	3,9867833E-001	3,6277157E-001	3,0492976E-002
30/08/2025 20:46:43.8558	3,1619310E-001	3,6659762E-001	3,5430998E-002
30/08/2025 20:46:52.2564	2,5117347E-001	3,7043515E-001	4,1051913E-002
30/08/2025 20:47:02.8084	1,9980818E-001	3,7481388E-001	4,6560548E-002
30/08/2025 20:47:16.1048	1,5846856E-001	3,8096610E-001	5,2677404E-002
30/08/2025 20:47:32.8299	1,2590654E-001	3,8840410E-001	6,0293600E-002
30/08/2025 20:47:53.8501	1,0013975E-001	3,9621663E-001	6,9128804E-002
30/08/2025 20:48:20.3448	7,9421178E-002	4,0492302E-001	7,8045949E-002
30/08/2025 20:48:53.6847	6,3101739E-002	4,1589624E-001	8,7231159E-002
30/08/2025 20:49:35.6234	5,0154075E-002	4,2961082E-001	9,6211649E-002
30/08/2025 20:50:28.4584	3,9804459E-002	4,4485980E-001	1,0809635E-001
30/08/2025 20:51:35.0194	3,1592205E-002	4,6167713E-001	1,2044021E-001
30/08/2025 20:52:58.6389	2,5144994E-002	4,8255631E-001	1,3007177E-001
30/08/2025 20:54:44.0279	1,9949391E-002	5,0718069E-001	1,3715985E-001
30/08/2025 20:56:56.5758	1,5860692E-002	5,3282684E-001	1,4341001E-001
30/08/2025 20:59:43.7271	1,2576789E-002	5,6044257E-001	1,4892320E-001
30/08/2025 21:03:13.7469	1,0009170E-002	5,8996296E-001	1,4942734E-001
30/08/2025 21:03:14.5827	1,9999814E+005	2,8768072E-001	-3,0490501E-002
30/08/2025 21:03:15.0167	1,5885727E+005	3,0136976E-001	-2,1112967E-002
30/08/2025 21:03:15.4507	1,2618765E+005	3,0802038E-001	-1,5417340E-002
30/08/2025 21:03:15.7447	1,0022640E+005	3,1256148E-001	-1,1833873E-002
30/08/2025 21:03:17.4397	7,9609563E+004	3,1427518E-001	-9,4069829E-003
30/08/2025 21:03:19.1337	6,3233004E+004	3,1494996E-001	-7,1645700E-003
30/08/2025 21:03:20.8277	5,0224539E+004	3,1526250E-001	-5,4456340E-003
30/08/2025 21:03:21.5417	3,9897566E+004	3,1596312E-001	-4,0460113E-003
30/08/2025 21:03:21.9767	3,1686090E+004	3,1614259E-001	-2,8703357E-003
30/08/2025 21:03:22.4107	2,5172580E+004	3,1640890E-001	-1,7418048E-003
30/08/2025 21:03:22.8457	1,9995176E+004	3,1643200E-001	-1,0258788E-003
30/08/2025 21:03:23.2797	1,5884798E+004	3,1671068E-001	-3,1216667E-004
30/08/2025 21:03:23.7137	1,2618766E+004	3,1699899E-001	4,0407272E-004
30/08/2025 21:03:24.1487	1,0020785E+004	3,1707889E-001	7,8375870E-004
30/08/2025 21:03:24.6410	7,9597607E+003	3,1765583E-001	1,1820403E-003
30/08/2025 21:03:25.2225	6,3238188E+003	3,1795248E-001	1,4627611E-003
30/08/2025 21:03:25.6919	5,0216069E+003	3,1817311E-001	2,0565493E-003
30/08/2025 21:03:26.3821	3,9861731E+003	3,1867161E-001	2,0947226E-003
30/08/2025 21:03:26.8491	3,1669595E+003	3,1904057E-001	2,2314279E-003
30/08/2025 21:03:27.3149	2,5158047E+003	3,1919065E-001	2,5334500E-003
30/08/2025 21:03:27.7832	1,9980818E+003	3,1973982E-001	2,7786088E-003
30/08/2025 21:03:28.2501	1,5884750E+003	3,2020262E-001	2,9475479E-003
30/08/2025 21:03:28.7159	1,2604036E+003	3,2058853E-001	3,2141015E-003
30/08/2025 21:03:29.1826	1,0016024E+003	3,2117623E-001	3,3970429E-003
30/08/2025 21:03:29.6499	7,9525409E+002	3,2163161E-001	3,6416277E-003
30/08/2025 21:03:30.1164	6,3181964E+002	3,2222596E-001	3,6919897E-003
30/08/2025 21:03:30.5831	5,0208865E+002	3,2275319E-001	3,9415644E-003
30/08/2025 21:03:31.0507	3,9859698E+002	3,2326183E-001	4,2067487E-003
30/08/2025 21:03:31.5159	3,1672299E+002	3,2384732E-001	4,4223820E-003
30/08/2025 21:03:31.9806	2,5169135E+002	3,2456106E-001	4,8671607E-003
30/08/2025 21:03:32.4491	1,9980818E+002	3,2536072E-001	4,8534223E-003
30/08/2025 21:03:32.9187	1,5862943E+002	3,2611540E-001	5,3224587E-003
30/08/2025 21:03:33.3833	1,2600809E+002	3,2674959E-001	5,5540767E-003
30/08/2025 21:03:33.8506	1,0016024E+002	3,2750329E-001	5,9307106E-003
30/08/2025 21:03:34.3212	7,9516548E+001	3,2825053E-001	5,9574135E-003
30/08/2025 21:03:34.7998	6,3160763E+001	3,2910693E-001	6,4559351E-003
30/08/2025 21:03:35.2661	5,0208866E+001	3,3003163E-001	6,7225350E-003
30/08/2025 21:03:35.7337	3,9859695E+001	3,3109084E-001	7,1447929E-003
30/08/2025 21:03:36.1794	3,1672298E+001	3,3205429E-001	7,2441692E-003
30/08/2025 21:03:36.6449	2,5136747E+001	3,3324251E-001	7,7314256E-003
30/08/2025 21:03:37.1122	1,9980818E+001	3,3424708E-001	8,2371309E-003
30/08/2025 21:03:37.5561	1,5857577E+001	3,3555120E-001	8,7382440E-003
30/08/2025 21:03:38.1030	1,2600809E+001	3,3675247E-001	9,1833137E-003
30/08/2025 21:03:38.5686	1,0016025E+001	3,3800924E-001	9,5723048E-003
30/08/2025 21:03:39.1434	7,9557004E+000	3,3939824E-001	1,0117517E-002
30/08/2025 21:03:39.5234	6,3105812E+000	3,4081715E-001	1,0770038E-002
30/08/2025 21:03:39.9924	5,0144420E+000	3,4232950E-001	1,1213559E-002
30/08/2025 21:03:40.5658	3,9859698E+000	3,4370172E-001	1,1574446E-002
30/08/2025 21:03:41.2740	3,1655185E+000	3,4528244E-001	1,2756059E-002
30/08/2025 21:03:42.1519	2,5136747E+000	3,4665182E-001	1,3321048E-002
30/08/2025 21:03:43.2449	1,9970603E+000	3,4852415E-001	1,4401498E-002
30/08/2025 21:03:44.6112	1,5846856E+000	3,4984046E-001	1,5275433E-002
30/08/2025 21:03:47.1632	1,2596742E+000	3,5255298E-001	1,6784530E-002
30/08/2025 21:03:49.3014	1,0000639E+000	3,5324931E-001	1,8314786E-002
30/08/2025 21:03:51.9834	7,9443753E-001	3,5501727E-001	2,0660535E-002
30/08/2025 21:03:55.3488	6,3126212E-001	3,5716173E-001	2,3389343E-002
30/08/2025 21:03:59.5785	5,0118679E-001	3,5998371E-001	2,6949003E-002
30/08/2025 21:04:04.8856	3,9867833E-001	3,6243573E-001	3,1075466E-002
30/08/2025 21:04:11.5670	3,1619310E-001	3,6574617E-001	3,5300449E-002
30/08/2025 21:04:19.9686	2,5117347E-001	3,7033522E-001	4,0262360E-002
30/08/2025 21:04:30.5205	1,9980818E-001	3,7553272E-001	4,6604592E-002
30/08/2025 21:04:43.8155	1,5846856E-001	3,8091415E-001	5,3637311E-002
30/08/2025 21:05:00.5405	1,2590654E-001	3,8717395E-001	6,0530931E-002
30/08/2025 21:05:21.5609	1,0013975E-001	3,9557910E-001	6,8030082E-002
30/08/2025 21:05:48.0566	7,9421178E-002	4,0591341E-001	7,7281341E-002
30/08/2025 21:06:21.3965	6,3101739E-002	4,1699019E-001	8,7569036E-002
30/08/2025 21:07:03.3351	5,0154075E-002	4,2864105E-001	9,7460784E-002
30/08/2025 21:07:56.1691	3,9804459E-002	4,4319558E-001	1,0732140E-001
30/08/2025 21:09:02.7292	3,1592205E-002	4,6204969E-001	1,1868681E-001
30/08/2025 21:10:26.3475	2,5144994E-002	4,8398793E-001	1,3021801E-001
30/08/2025 21:12:11.7366	1,9949391E-002	5,0750160E-001	1,3847061E-001
30/08/2025 21:14:24.2856	1,5860692E-002	5,3178620E-001	1,4406104E-001
30/08/2025 21:17:11.4360	1,2576789E-002	5,5992103E-001	1,4799719E-001
30/08/2025 21:20:41.4569	1,0009170E-002	5,9062010E-001	1,4888681E-001
30/08/2025 21:20:42.2927	1,9999814E+005	2,9360592E-001	-3,7936810E-002
30/08/2025 21:20:42.7267	1,5885727E+005	3,0423772E-001	-2,7726600E-002
30/08/2025 21:20:43.1607	1,2618765E+005	3,0972400E-001	-1,9730119E-002
30/08/2025 21:20:43.4547	1,0022640E+005	3,1280953E-001	-1,4203440E-002
30/08/2025 21:20:45.1497	7,9609563E+004	3,1412235E-001	-1,0678211E-002
30/08/2025 21:20:46.8437	6,3233004E+004	3,1492236E-001	-7,8942478E-003
30/08/2025 21:20:47.9777	5,0224539E+004	3,1527364E-001	-5,9392694E-003
30/08/2025 21:20:48.6917	3,9897566E+004	3,1601441E-001	-4,3037855E-003
30/08/2025 21:20:49.1267	3,1686090E+004	3,1620571E-001	-3,2366896E-003
30/08/2025 21:20:49.5607	2,5172580E+004	3,1641570E-001	-2,0951331E-003
30/08/2025 21:20:49.9947	1,9995176E+004	3,1684789E-001	-1,2738410E-003
30/08/2025 21:20:50.4297	1,5884798E+004	3,1679991E-001	-4,1180933E-004
30/08/2025 21:20:50.8647	1,2618766E+004	3,1717777E-001	1,4156739E-004
30/08/2025 21:20:51.2987	1,0020785E+004	3,1733161E-001	8,6826470E-004
30/08/2025 21:20:51.7900	7,9597607E+003	3,1754157E-001	1,1208209E-003
30/08/2025 21:20:52.3715	6,3238188E+003	3,1799272E-001	1,5189726E-003
30/08/2025 21:20:52.8420	5,0216069E+003	3,1842873E-001	1,8899578E-003
30/08/2025 21:20:53.5332	3,9861731E+003	3,1860986E-001	2,1022360E-003
30/08/2025 21:20:54.0002	3,1669595E+003	3,1904361E-001	2,3351896E-003
30/08/2025 21:20:54.4659	2,5158047E+003	3,1946483E-001	2,4104821E-003
30/08/2025 21:20:54.9342	1,9980818E+003	3,1998551E-001	2,7658900E-003
30/08/2025 21:20:55.4012	1,5884750E+003	3,2023731E-001	2,8996358E-003
30/08/2025 21:20:55.8669	1,2604036E+003	3,2060942E-001	3,1136305E-003
30/08/2025 21:20:56.3337	1,0016024E+003	3,2125232E-001	3,3857590E-003
30/08/2025 21:20:56.8009	7,9525409E+002	3,2168460E-001	3,6809449E-003
30/08/2025 21:20:57.2674	6,3181964E+002	3,2219169E-001	3,6116205E-003
30/08/2025 21:20:57.7332	5,0208865E+002	3,2258770E-001	4,0530907E-003
30/08/2025 21:20:58.2007	3,9859698E+002	3,2327384E-001	4,3723653E-003
30/08/2025 21:20:58.6659	3,1672299E+002	3,2398170E-001	4,4589462E-003
30/08/2025 21:20:59.1306	2,5169135E+002	3,2458529E-001	4,4828495E-003
30/08/2025 21:20:59.5992	1,9980818E+002	3,2520378E-001	4,9038553E-003
30/08/2025 21:21:00.0687	1,5862943E+002	3,2599652E-001	5,2311202E-003
30/08/2025 21:21:00.5344	1,2600809E+002	3,2684147E-001	5,5094059E-003
30/08/2025 21:21:01.0017	1,0016024E+002	3,2755795E-001	5,6291758E-003
30/08/2025 21:21:01.4732	7,9516548E+001	3,2832503E-001	6,0306489E-003
30/08/2025 21:21:01.9518	6,3160763E+001	3,2924914E-001	6,3841199E-003
30/08/2025 21:21:02.4182	5,0208866E+001	3,3013943E-001	6,7894314E-003
30/08/2025 21:21:02.8857	3,9859695E+001	3,3105317E-001	6,8976497E-003
30/08/2025 21:21:03.3314	3,1672298E+001	3,3211824E-001	7,5448989E-003
30/08/2025 21:21:03.7969	2,5136747E+001	3,3321214E-001	7,7496259E-003
30/08/2025 21:21:04.2652	1,9980818E+001	3,3440727E-001	8,1897350E-003
30/08/2025 21:21:04.7092	1,5857577E+001	3,3550680E-001	8,6438106E-003
30/08/2025 21:21:05.2561	1,2600809E+001	3,3668944E-001	9,0563623E-003
30/08/2025 21:21:05.7217	1,0016025E+001	3,3800599E-001	9,6593872E-003
30/08/2025 21:21:06.2964	7,9557004E+000	3,3926076E-001	1,0174472E-002
30/08/2025 21:21:06.6764	6,3105812E+000	3,4088531E-001	1,0590373E-002
30/08/2025 21:21:07.1454	5,0144420E+000	3,4241191E-001	1,1123583E-002
30/08/2025 21:21:07.7189	3,9859698E+000	3,4388334E-001	1,1591161E-002
30/08/2025 21:21:08.4270	3,1655185E+000	3,4549579E-001	1,2564537E-002
30/08/2025 21:21:09.3050	2,5136747E+000	3,4716019E-001	1,3325984E-002
30/08/2025 21:21:10.3980	1,9970603E+000	3,4836248E-001	1,3893590E-002
30/08/2025 21:21:11.7644	1,5846856E+000	3,5014403E-001	1,5198100E-002
30/08/2025 21:21:14.3163	1,2596742E+000	3,5062090E-001	1,6693840E-002
30/08/2025 21:21:16.4545	1,0000639E+000	3,5343379E-001	1,8562499E-002
30/08/2025 21:21:19.1364	7,9443753E-001	3,5539511E-001	2,0835148E-002
30/08/2025 21:21:22.5022	6,3126212E-001	3,5728228E-001	2,4006274E-002
30/08/2025 21:21:26.7314	5,0118679E-001	3,5952482E-001	2,6824959E-002
30/08/2025 21:21:32.0385	3,9867833E-001	3,6269754E-001	3,0534925E-002
30/08/2025 21:21:38.7199	3,1619310E-001	3,6637554E-001	3,5557218E-002
30/08/2025 21:21:47.1205	2,5117347E-001	3,7009728E-001	4,0983222E-002
30/08/2025 21:21:57.6725	1,9980818E-001	3,7468788E-001	4,6378404E-002
30/08/2025 21:22:10.9688	1,5846856E-001	3,8100696E-001	5,2639496E-002
30/08/2025 21:22:27.6938	1,2590654E-001	3,8834414E-001	6,0470100E-002
30/08/2025 21:22:48.7141	1,0013975E-001	3,9588264E-001	6,9187380E-002
30/08/2025 21:23:15.2088	7,9421178E-002	4,0471989E-001	7,7795871E-002
30/08/2025 21:23:48.5486	6,3101739E-002	4,1588795E-001	8,7017477E-002
30/08/2025 21:24:30.4884	5,0154075E-002	4,2976728E-001	9,6368752E-002
30/08/2025 21:25:23.3234	3,9804459E-002	4,4457284E-001	1,0829410E-001
30/08/2025 21:26:29.8844	3,1592205E-002	4,6120408E-001	1,2018216E-001
30/08/2025 21:27:53.5037	2,5144994E-002	4,8251700E-001	1,2959486E-001
30/08/2025 21:29:38.8927	1,9949391E-002	5,0746936E-001	1,3707623E-001