File: data/phase_2a/Sergey/3/20.7/02 polarisation/C7D1_hr 0,1MFeCN6_in_1M_KCl_3306mL_symmetric_balanced_4_point_PEIS_02_CP_C16.txt
time/s	I/mA	<Ewe/V>
03/09/2025 13:40:00.7890	6,0685435E-003	-4,6891300E-003
03/09/2025 13:40:03.0890	6,0685435E-003	-4,6849973E-003
03/09/2025 13:40:05.3890	6,0685435E-003	-4,6834312E-003
03/09/2025 13:40:07.6890	1,5614044E-002	-4,6882057E-003
03/09/2025 13:40:09.9890	7,9776440E-003	-4,6964185E-003
03/09/2025 13:40:12.2890	6,7049102E-003	-4,6881293E-003
03/09/2025 13:40:14.5890	3,4124311E-004	-4,6811388E-003
03/09/2025 13:40:16.8890	6,7049102E-003	-4,6887407E-003
03/09/2025 13:40:19.1890	-2,9512335E-004	-4,6834694E-003
03/09/2025 13:40:21.4890	5,4321769E-003	-4,6819793E-003
03/09/2025 13:40:23.7890	5,4321769E-003	-4,6903454E-003
03/09/2025 13:40:26.0890	5,4321769E-003	-4,6889703E-003
03/09/2025 13:40:28.3890	7,9776440E-003	-4,6830494E-003
03/09/2025 13:40:30.6890	8,6140092E-003	-4,6897340E-003
03/09/2025 13:40:32.9890	2,2503431E-003	-4,6877475E-003
03/09/2025 13:40:35.2890	9,2503773E-003	-4,6841949E-003
03/09/2025 13:40:37.5890	1,1159477E-002	-4,6816738E-003
03/09/2025 13:40:39.8890	-2,9512335E-004	-4,6884734E-003
03/09/2025 13:40:42.1890	9,8867435E-003	-4,6796873E-003
03/09/2025 13:40:44.4890	1,1159477E-002	-4,6834312E-003
03/09/2025 13:40:46.7890	1,6886778E-002	-4,6859523E-003
03/09/2025 13:40:49.0890	9,2503773E-003	-4,6851118E-003
03/09/2025 13:40:51.3890	4,1594426E-003	-4,6782359E-003
03/09/2025 13:40:53.6890	5,4321769E-003	-4,6846149E-003
03/09/2025 13:40:55.9890	1,4341311E-002	-4,6885880E-003
03/09/2025 13:40:58.2890	2,8867100E-003	-4,6813684E-003
03/09/2025 13:41:00.5890	9,2503773E-003	-4,6853409E-003
03/09/2025 13:41:02.8890	1,3068578E-002	-4,6930956E-003
03/09/2025 13:41:05.1890	8,6140092E-003	-4,6877475E-003
03/09/2025 13:41:07.4890	4,1594426E-003	-4,6806806E-003
03/09/2025 13:41:09.7890	4,7958097E-003	-4,6867924E-003
03/09/2025 13:41:12.0890	2,8867100E-003	-4,6833162E-003
03/09/2025 13:41:14.3890	4,1594426E-003	-4,6841186E-003
03/09/2025 13:41:16.6890	6,0685435E-003	-4,6864487E-003
03/09/2025 13:41:18.9890	4,1594426E-003	-4,6902304E-003
03/09/2025 13:41:21.2890	8,6140092E-003	-4,6815593E-003
03/09/2025 13:41:23.5890	4,7958097E-003	-4,6856082E-003
03/09/2025 13:41:25.8890	8,6140092E-003	-4,6871742E-003
03/09/2025 13:41:28.1890	5,4321769E-003	-4,6874802E-003
03/09/2025 13:41:30.4890	1,1795843E-002	-4,6853409E-003
03/09/2025 13:41:32.7890	7,9776440E-003	-4,6929424E-003
03/09/2025 13:41:35.0890	4,7958097E-003	-4,6923314E-003
03/09/2025 13:41:37.3890	6,7049102E-003	-4,6922932E-003
03/09/2025 13:41:39.6890	1,3704944E-002	-4,6888934E-003
03/09/2025 13:41:41.9890	7,3412773E-003	-4,6913768E-003
03/09/2025 13:41:44.2890	6,0685435E-003	-4,6877475E-003
03/09/2025 13:41:46.5890	4,1594426E-003	-4,6934392E-003
03/09/2025 13:41:48.8890	1,1795843E-002	-4,6940120E-003
03/09/2025 13:41:51.1890	6,0685435E-003	-4,6917205E-003
03/09/2025 13:41:53.4890	9,8867435E-003	-4,6954635E-003
03/09/2025 13:41:55.7890	6,0685435E-003	-4,6928665E-003
03/09/2025 13:41:58.0890	1,1159477E-002	-4,6892371E-003
03/09/2025 13:42:00.3890	1,3704944E-002	-4,6940884E-003
03/09/2025 13:42:02.6890	6,0685435E-003	-4,6977177E-003
03/09/2025 13:42:04.9890	1,3704944E-002	-4,6908036E-003
03/09/2025 13:42:07.2890	1,1159477E-002	-4,6842331E-003
03/09/2025 13:42:09.5890	1,1795843E-002	-4,6959603E-003
03/09/2025 13:42:11.8890	1,6139771E-003	-4,6860282E-003
03/09/2025 13:42:14.1890	6,7049102E-003	-4,6866778E-003
03/09/2025 13:42:16.4890	4,1594426E-003	-4,6854173E-003
03/09/2025 13:42:18.7890	2,8867100E-003	-4,6875947E-003
03/09/2025 13:42:21.0890	3,5230771E-003	-4,6868310E-003
03/09/2025 13:42:23.3890	3,5230771E-003	-4,6881675E-003
03/09/2025 13:42:25.6890	9,2503773E-003	-4,6875179E-003
03/09/2025 13:42:27.9890	6,7049102E-003	-4,6844627E-003
03/09/2025 13:42:30.2890	6,7049102E-003	-4,6838513E-003
03/09/2025 13:42:32.5890	1,3704944E-002	-4,6875565E-003
03/09/2025 13:42:34.8890	2,8867100E-003	-4,6881675E-003
03/09/2025 13:42:37.1890	9,7761012E-004	-4,6900776E-003
03/09/2025 13:42:39.4890	7,3412773E-003	-4,6876711E-003
03/09/2025 13:42:41.7890	1,1795843E-002	-4,6825525E-003
03/09/2025 13:42:44.0890	1,2432210E-002	-4,6866396E-003
03/09/2025 13:42:46.3890	4,1594426E-003	-4,6862196E-003
03/09/2025 13:42:48.6890	8,6140092E-003	-4,6922932E-003
03/09/2025 13:42:50.9890	-5,3860568E-003	-4,6858760E-003
03/09/2025 13:42:53.2890	8,6140092E-003	-4,6840422E-003
03/09/2025 13:42:55.5890	4,7958097E-003	-4,6815211E-003
03/09/2025 13:42:57.8890	1,2432210E-002	-4,6887407E-003
03/09/2025 13:43:00.1890	1,1159477E-002	-4,6830871E-003
03/09/2025 13:43:02.4890	8,6140092E-003	-4,6906890E-003
03/09/2025 13:43:04.7890	7,3412773E-003	-4,6867160E-003
03/09/2025 13:43:07.0890	1,0523110E-002	-4,6849209E-003
03/09/2025 13:43:09.3890	1,2432210E-002	-4,6846913E-003
03/09/2025 13:43:11.6890	7,3412773E-003	-4,6896194E-003
03/09/2025 13:43:13.9890	1,1795843E-002	-4,6854559E-003
03/09/2025 13:43:16.2890	1,6139771E-003	-4,6790000E-003
03/09/2025 13:43:18.5890	9,2503773E-003	-4,6882443E-003
03/09/2025 13:43:20.8890	4,7958097E-003	-4,6896576E-003
03/09/2025 13:43:23.1890	1,4977678E-002	-4,6775104E-003
03/09/2025 13:43:25.4890	1,0523110E-002	-4,6907654E-003
03/09/2025 13:43:27.7890	1,2432210E-002	-4,6854173E-003
03/09/2025 13:43:30.0890	1,6886778E-002	-4,6803369E-003
03/09/2025 13:43:32.3890	1,3068578E-002	-4,6869838E-003
03/09/2025 13:43:34.6890	2,8867100E-003	-4,6888934E-003
03/09/2025 13:43:36.9890	4,1594426E-003	-4,6829726E-003
03/09/2025 13:43:39.2890	1,5614044E-002	-4,6787704E-003
03/09/2025 13:43:41.5890	1,1795843E-002	-4,6825144E-003
03/09/2025 13:43:43.8890	2,8867100E-003	-4,6840422E-003
03/09/2025 13:43:46.1890	9,8867435E-003	-4,6745688E-003
03/09/2025 13:43:48.4890	9,2503773E-003	-4,6852264E-003
03/09/2025 13:43:50.7890	4,7958097E-003	-4,6869838E-003
03/09/2025 13:43:53.0890	2,8867100E-003	-4,6822848E-003
03/09/2025 13:43:55.3890	6,7049102E-003	-4,6821320E-003
03/09/2025 13:43:57.6890	6,7049102E-003	-4,6877856E-003
03/09/2025 13:43:59.9890	9,2503773E-003	-4,6850732E-003
03/09/2025 13:44:02.2890	6,7049102E-003	-4,6901540E-003
03/09/2025 13:44:04.5890	1,1159477E-002	-4,6909945E-003
03/09/2025 13:44:06.8890	9,8867435E-003	-4,6850732E-003
03/09/2025 13:44:09.1890	2,8867100E-003	-4,6828580E-003
03/09/2025 13:44:11.4890	9,8867435E-003	-4,6849973E-003
03/09/2025 13:44:13.7890	2,2503431E-003	-4,6919114E-003
03/09/2025 13:44:16.0890	5,4321769E-003	-4,6868306E-003
03/09/2025 13:44:18.3890	9,7761012E-004	-4,6819793E-003
03/09/2025 13:44:20.6890	5,4321769E-003	-4,6910709E-003
03/09/2025 13:44:22.9890	3,5230771E-003	-4,6867160E-003
03/09/2025 13:44:25.2890	6,0685435E-003	-4,6836217E-003
03/09/2025 13:44:27.5890	2,8867100E-003	-4,6939356E-003
03/09/2025 13:44:29.8890	2,2503431E-003	-4,6881293E-003
03/09/2025 13:44:32.1890	6,7049102E-003	-4,6874420E-003
03/09/2025 13:44:34.4890	1,1795843E-002	-4,6884734E-003
03/09/2025 13:44:36.7890	6,7049102E-003	-4,6889703E-003
03/09/2025 13:44:39.0890	1,3704944E-002	-4,6861046E-003
03/09/2025 13:44:41.3890	4,1594426E-003	-4,6872511E-003
03/09/2025 13:44:43.6890	9,2503773E-003	-4,6904217E-003
03/09/2025 13:44:45.9890	1,1795843E-002	-4,6817120E-003
03/09/2025 13:44:48.2890	8,6140092E-003	-4,6883970E-003
03/09/2025 13:44:50.5890	1,1159477E-002	-4,6947761E-003
03/09/2025 13:44:52.8890	5,4321769E-003	-4,6887789E-003
03/09/2025 13:44:55.1890	4,1594426E-003	-4,6859141E-003
03/09/2025 13:44:57.4890	1,4341311E-002	-4,6895044E-003
03/09/2025 13:44:59.7890	9,2503773E-003	-4,6801455E-003
03/09/2025 13:45:02.0890	5,4321769E-003	-4,6903454E-003
03/09/2025 13:45:04.3890	2,2503431E-003	-4,6891226E-003
03/09/2025 13:45:06.6890	2,8867100E-003	-4,6885493E-003
03/09/2025 13:45:08.9890	5,4321769E-003	-4,6848827E-003
03/09/2025 13:45:11.2890	1,0523110E-002	-4,6919873E-003
03/09/2025 13:45:13.5890	7,9776440E-003	-4,6941652E-003
03/09/2025 13:45:15.8890	9,8867435E-003	-4,6922551E-003
03/09/2025 13:45:18.1890	3,4124311E-004	-4,6917205E-003
03/09/2025 13:45:20.4890	1,1795843E-002	-4,6896958E-003
03/09/2025 13:45:22.7890	4,7958097E-003	-4,6856082E-003
03/09/2025 13:45:25.0890	8,6140092E-003	-4,6860664E-003
03/09/2025 13:45:27.3890	9,7761012E-004	-4,6922932E-003
03/09/2025 13:45:29.6890	1,1795843E-002	-4,6904976E-003
03/09/2025 13:45:31.9890	7,9776440E-003	-4,6851500E-003
03/09/2025 13:45:34.2890	5,4321769E-003	-4,6900776E-003
03/09/2025 13:45:36.5890	4,1594426E-003	-4,6906122E-003
03/09/2025 13:45:38.8890	-9,3149021E-004	-4,6877475E-003
03/09/2025 13:45:41.1890	5,4321769E-003	-4,6916055E-003
03/09/2025 13:45:43.4890	7,9776440E-003	-4,6968390E-003
03/09/2025 13:45:45.7890	9,7761012E-004	-4,6905358E-003
03/09/2025 13:45:48.0890	1,1795843E-002	-4,6901158E-003
03/09/2025 13:45:50.3890	6,0685435E-003	-4,6958076E-003
03/09/2025 13:45:52.6890	1,3704944E-002	-4,6937447E-003
03/09/2025 13:45:54.9890	4,7958097E-003	-4,6892371E-003
03/09/2025 13:45:57.2890	7,3412773E-003	-4,6941652E-003
03/09/2025 13:45:59.5890	9,2503773E-003	-4,6897340E-003
03/09/2025 13:46:01.8890	6,7049102E-003	-4,6833162E-003
03/09/2025 13:46:04.1890	9,2503773E-003	-4,6865633E-003
03/09/2025 13:46:06.4890	1,1795843E-002	-4,6931719E-003
03/09/2025 13:46:08.7890	7,9776440E-003	-4,6905740E-003
03/09/2025 13:46:11.0890	9,8867435E-003	-4,6893903E-003
03/09/2025 13:46:13.3890	1,3704944E-002	-4,6934010E-003
03/09/2025 13:46:15.6890	1,3068578E-002	-4,6874802E-003
03/09/2025 13:46:17.9890	3,5230771E-003	-4,6850732E-003
03/09/2025 13:46:20.2890	4,7958097E-003	-4,6919873E-003
03/09/2025 13:46:22.5890	7,9776440E-003	-4,6872129E-003
03/09/2025 13:46:24.8890	6,0685435E-003	-4,6823998E-003
03/09/2025 13:46:27.1890	1,6139771E-003	-4,6885493E-003
03/09/2025 13:46:29.4890	5,4321769E-003	-4,6917968E-003
03/09/2025 13:46:31.7890	8,6140092E-003	-4,6831635E-003
03/09/2025 13:46:34.0890	4,1594426E-003	-4,6807569E-003
03/09/2025 13:46:36.3890	3,5230771E-003	-4,6904217E-003
03/09/2025 13:46:38.6890	1,0523110E-002	-4,6838131E-003
03/09/2025 13:46:40.9890	1,1159477E-002	-4,6835076E-003
03/09/2025 13:46:43.2890	8,6140092E-003	-4,6895808E-003
03/09/2025 13:46:45.5890	9,7761012E-004	-4,6931719E-003
03/09/2025 13:46:47.8890	1,4977678E-002	-4,6843858E-003
03/09/2025 13:46:50.1890	1,2432210E-002	-4,6815970E-003
03/09/2025 13:46:52.4890	6,0685435E-003	-4,6923696E-003
03/09/2025 13:46:54.7890	4,1594426E-003	-4,6945089E-003
03/09/2025 13:46:57.0890	8,6140092E-003	-4,6900394E-003
03/09/2025 13:46:59.3890	1,1795843E-002	-4,6919491E-003
03/09/2025 13:47:01.6890	9,8867435E-003	-4,6932865E-003
03/09/2025 13:47:03.9890	8,6140092E-003	-4,6840040E-003
03/09/2025 13:47:06.2890	2,2503431E-003	-4,6850350E-003
03/09/2025 13:47:08.5890	3,4124311E-004	-4,6873274E-003
03/09/2025 13:47:10.8890	1,3068578E-002	-4,6910327E-003
03/09/2025 13:47:13.1890	4,7958097E-003	-4,6920259E-003
03/09/2025 13:47:15.4890	4,7958097E-003	-4,6940502E-003
03/09/2025 13:47:17.7890	7,3412773E-003	-4,6884734E-003
03/09/2025 13:47:20.0890	7,9776440E-003	-4,6908418E-003
03/09/2025 13:47:22.3890	9,8867435E-003	-4,6971445E-003
03/09/2025 13:47:24.6890	2,8867100E-003	-4,6925605E-003
03/09/2025 13:47:26.9890	1,4341311E-002	-4,6893521E-003
03/09/2025 13:47:29.2890	6,7049102E-003	-4,6926369E-003
03/09/2025 13:47:31.5890	8,6140092E-003	-4,7003916E-003
03/09/2025 13:47:33.8890	7,3412773E-003	-4,6884352E-003
03/09/2025 13:47:36.1890	4,1594426E-003	-4,6961131E-003
03/09/2025 13:47:38.4890	7,9776440E-003	-4,6987110E-003
03/09/2025 13:47:40.7890	8,6140092E-003	-4,6965717E-003
03/09/2025 13:47:43.0890	9,2503773E-003	-4,6923696E-003
03/09/2025 13:47:45.3890	2,2503431E-003	-4,6938597E-003
03/09/2025 13:47:47.6890	8,6140092E-003	-4,6903072E-003
03/09/2025 13:47:49.9890	1,1795843E-002	-4,6880147E-003
03/09/2025 13:47:52.2890	6,0685435E-003	-4,6947380E-003
03/09/2025 13:47:54.5890	1,6139771E-003	-4,6957312E-003
03/09/2025 13:47:56.8890	1,3704944E-002	-4,6907272E-003
03/09/2025 13:47:59.1890	8,6140092E-003	-4,6887789E-003
03/09/2025 13:48:01.4890	1,0523110E-002	-4,6955403E-003
03/09/2025 13:48:03.7890	1,1159477E-002	-4,6915291E-003
03/09/2025 13:48:06.0890	1,2432210E-002	-4,6897721E-003
03/09/2025 13:48:08.3890	7,9776440E-003	-4,7012321E-003
03/09/2025 13:48:10.6890	9,2503773E-003	-4,6954635E-003
03/09/2025 13:48:12.9890	6,7049102E-003	-4,6866778E-003
03/09/2025 13:48:15.2890	6,7049102E-003	-4,6906509E-003
03/09/2025 13:48:17.5890	4,1594426E-003	-4,6927133E-003
03/09/2025 13:48:19.8890	6,0685435E-003	-4,6901922E-003
03/09/2025 13:48:22.1890	7,3412773E-003	-4,6915291E-003
03/09/2025 13:48:24.4890	8,6140092E-003	-4,6976414E-003
03/09/2025 13:48:26.7890	1,2432210E-002	-4,6972213E-003
03/09/2025 13:48:29.0890	8,6140092E-003	-4,6896958E-003
03/09/2025 13:48:31.3890	2,8867100E-003	-4,6925223E-003
03/09/2025 13:48:33.6890	6,0685435E-003	-4,6915291E-003
03/09/2025 13:48:35.9890	1,0523110E-002	-4,6894285E-003
03/09/2025 13:48:38.2890	1,1159477E-002	-4,6875565E-003
03/09/2025 13:48:40.5890	4,1594426E-003	-4,6968777E-003
03/09/2025 13:48:42.8890	2,8867100E-003	-4,6855700E-003
03/09/2025 13:48:45.1890	4,1594426E-003	-4,6898485E-003
03/09/2025 13:48:47.4890	9,2503773E-003	-4,6957694E-003
03/09/2025 13:48:49.7890	1,1159477E-002	-4,6931719E-003
03/09/2025 13:48:52.0890	-1,5678566E-003	-4,6964185E-003
03/09/2025 13:48:54.3890	5,4321769E-003	-4,6989014E-003
03/09/2025 13:48:56.6890	4,7958097E-003	-4,6995129E-003
03/09/2025 13:48:58.9890	1,0523110E-002	-4,6936302E-003
03/09/2025 13:49:01.2890	9,8867435E-003	-4,6958462E-003
03/09/2025 13:49:03.5890	8,6140092E-003	-4,7033709E-003
03/09/2025 13:49:05.8890	4,1594426E-003	-4,6942416E-003
03/09/2025 13:49:08.1890	4,1594426E-003	-4,6920259E-003
03/09/2025 13:49:10.4890	4,7958097E-003	-4,6992456E-003
03/09/2025 13:49:12.7890	8,6140092E-003	-4,7039823E-003
03/09/2025 13:49:15.0890	1,6139771E-003	-4,6922169E-003
03/09/2025 13:49:17.3890	1,1159477E-002	-4,6922169E-003
03/09/2025 13:49:19.6890	6,7049102E-003	-4,7036386E-003
03/09/2025 13:49:21.9890	1,0523110E-002	-4,6949671E-003
03/09/2025 13:49:24.2890	2,2503431E-003	-4,6972213E-003
03/09/2025 13:49:26.5890	9,7761012E-004	-4,7013462E-003
03/09/2025 13:49:28.8890	1,0523110E-002	-4,6996274E-003
03/09/2025 13:49:31.1890	3,5230771E-003	-4,6961512E-003
03/09/2025 13:49:33.4890	4,7958097E-003	-4,6937065E-003
03/09/2025 13:49:35.7890	1,3068578E-002	-4,6949671E-003
03/09/2025 13:49:38.0890	7,3412773E-003	-4,6900776E-003
03/09/2025 13:49:40.3890	1,3704944E-002	-4,7013848E-003
03/09/2025 13:49:42.6890	9,8867435E-003	-4,6978323E-003
03/09/2025 13:49:44.9890	8,6140092E-003	-4,6962663E-003
03/09/2025 13:49:47.2890	9,8867435E-003	-4,6946616E-003
03/09/2025 13:49:49.5890	1,1159477E-002	-4,6913386E-003
03/09/2025 13:49:51.8890	2,2503431E-003	-4,6956167E-003
03/09/2025 13:49:54.1890	1,3704944E-002	-4,6903836E-003
03/09/2025 13:49:56.4890	9,7761012E-004	-4,6909181E-003
03/09/2025 13:49:58.7890	4,7958097E-003	-4,6932101E-003
03/09/2025 13:50:01.0416	2,6510742E+001	4,4327979E-003
03/09/2025 13:50:03.3416	2,6507559E+001	6,8475120E-003
03/09/2025 13:50:05.6416	2,6510105E+001	7,9067880E-003
03/09/2025 13:50:07.9416	2,6505014E+001	8,5152313E-003
03/09/2025 13:50:10.2416	2,6505014E+001	8,8508921E-003
03/09/2025 13:50:12.5416	2,6506285E+001	9,0358546E-003
03/09/2025 13:50:14.8416	2,6512651E+001	9,1239419E-003
03/09/2025 13:50:17.1416	2,6511377E+001	9,1832662E-003
03/09/2025 13:50:19.4416	2,6505650E+001	9,2001893E-003
03/09/2025 13:50:21.7416	2,6507559E+001	9,2165386E-003
03/09/2025 13:50:24.0416	2,6508831E+001	9,2277685E-003
03/09/2025 13:50:26.3416	2,6508831E+001	9,2477472E-003
03/09/2025 13:50:28.6416	2,6514559E+001	9,2503075E-003
03/09/2025 13:50:30.9416	2,6511377E+001	9,2718136E-003
03/09/2025 13:50:33.2416	2,6504377E+001	9,2829680E-003
03/09/2025 13:50:35.5416	2,6509470E+001	9,2937024E-003
03/09/2025 13:50:37.8416	2,6506285E+001	9,3159340E-003
03/09/2025 13:50:40.1416	2,6508831E+001	9,3417186E-003
03/09/2025 13:50:42.4416	2,6510742E+001	9,3545159E-003
03/09/2025 13:50:44.7416	2,6505650E+001	9,3806833E-003
03/09/2025 13:50:47.0416	2,6509470E+001	9,4071170E-003
03/09/2025 13:50:49.3416	2,6506924E+001	9,4180424E-003
03/09/2025 13:50:51.6416	2,6510105E+001	9,4371410E-003
03/09/2025 13:50:53.9416	2,6508831E+001	9,4597936E-003
03/09/2025 13:50:56.2416	2,6507559E+001	9,4843181E-003
03/09/2025 13:50:58.5416	2,6515194E+001	9,4947843E-003
03/09/2025 13:51:00.8416	2,6513922E+001	9,5171314E-003
03/09/2025 13:51:03.1416	2,6507559E+001	9,5350854E-003
03/09/2025 13:51:05.4416	2,6504377E+001	9,5510148E-003
03/09/2025 13:51:07.7416	2,6509470E+001	9,5671350E-003
03/09/2025 13:51:10.0416	2,6510105E+001	9,5886793E-003
03/09/2025 13:51:12.3416	2,6505650E+001	9,6046468E-003
03/09/2025 13:51:14.6416	2,6511377E+001	9,6311197E-003
03/09/2025 13:51:16.9416	2,6508831E+001	9,6376128E-003
03/09/2025 13:51:19.2416	2,6504377E+001	9,6755074E-003
03/09/2025 13:51:21.5416	2,6503107E+001	9,6831089E-003
03/09/2025 13:51:23.8416	2,6510742E+001	9,7169541E-003
03/09/2025 13:51:26.1416	2,6505650E+001	9,7399121E-003
03/09/2025 13:51:28.4416	2,6509470E+001	9,7583234E-003
03/09/2025 13:51:30.7416	2,6505650E+001	9,7662313E-003
03/09/2025 13:51:33.0416	2,6507559E+001	9,7946143E-003
03/09/2025 13:51:35.3416	2,6505014E+001	9,8094726E-003
03/09/2025 13:51:37.6416	2,6508196E+001	9,8202843E-003
03/09/2025 13:51:39.9416	2,6510742E+001	9,8462598E-003
03/09/2025 13:51:42.2416	2,6512012E+001	9,8684160E-003
03/09/2025 13:51:44.5416	2,6511377E+001	9,8883947E-003
03/09/2025 13:51:46.8416	2,6506924E+001	9,8979054E-003
03/09/2025 13:51:49.1416	2,6513287E+001	9,9271284E-003
03/09/2025 13:51:51.4416	2,6503107E+001	9,9465726E-003
03/09/2025 13:51:53.7416	2,6511377E+001	9,9568469E-003
03/09/2025 13:51:56.0416	2,6506924E+001	9,9808751E-003
03/09/2025 13:51:58.3416	2,6509470E+001	1,0011396E-002
03/09/2025 13:52:00.6416	2,6505650E+001	1,0023774E-002
03/09/2025 13:52:02.8418	7,9776440E-003	-1,1524474E-003
03/09/2025 13:52:05.1418	8,6140092E-003	-2,3596324E-003
03/09/2025 13:52:07.4418	6,0685435E-003	-3,0162842E-003
03/09/2025 13:52:09.7418	4,7958097E-003	-3,3806707E-003
03/09/2025 13:52:12.0418	6,0685435E-003	-3,5794233E-003
03/09/2025 13:52:14.3418	7,9776440E-003	-3,6699947E-003
03/09/2025 13:52:16.6418	1,7523142E-002	-3,6952447E-003
03/09/2025 13:52:18.9418	1,3068578E-002	-3,7111356E-003
03/09/2025 13:52:21.2418	1,0523110E-002	-3,7051383E-003
03/09/2025 13:52:23.5418	4,7958097E-003	-3,7012417E-003
03/09/2025 13:52:25.8418	1,1795843E-002	-3,6830970E-003
03/09/2025 13:52:28.1418	6,7049102E-003	-3,6895911E-003
03/09/2025 13:52:30.4418	-2,8405902E-003	-3,6856565E-003
03/09/2025 13:52:32.7418	1,1159477E-002	-3,6812634E-003
03/09/2025 13:52:35.0418	4,7958097E-003	-3,6785894E-003
03/09/2025 13:52:37.3418	1,1159477E-002	-3,6775579E-003
03/09/2025 13:52:39.6418	1,1159477E-002	-3,6715989E-003
03/09/2025 13:52:41.9418	6,7049102E-003	-3,6725542E-003
03/09/2025 13:52:44.2418	7,9776440E-003	-3,6785130E-003
03/09/2025 13:52:46.5418	3,5230771E-003	-3,6790096E-003
03/09/2025 13:52:48.8418	1,0523110E-002	-3,6775579E-003
03/09/2025 13:52:51.1418	6,0685435E-003	-3,6753041E-003
03/09/2025 13:52:53.4418	8,6140092E-003	-3,6824096E-003
03/09/2025 13:52:55.7418	1,0523110E-002	-3,6760303E-003
03/09/2025 13:52:58.0418	-2,9512335E-004	-3,6774054E-003
03/09/2025 13:53:00.3418	7,3412773E-003	-3,6841668E-003
03/09/2025 13:53:02.6418	1,1159477E-002	-3,6800792E-003
03/09/2025 13:53:04.9418	7,3412773E-003	-3,6732415E-003
03/09/2025 13:53:07.2418	8,6140092E-003	-3,6787805E-003
03/09/2025 13:53:09.5418	1,0523110E-002	-3,6809198E-003
03/09/2025 13:53:11.8418	8,6140092E-003	-3,6717900E-003
03/09/2025 13:53:14.1418	6,0685435E-003	-3,6753807E-003
03/09/2025 13:53:16.4418	5,4321769E-003	-3,6840902E-003
03/09/2025 13:53:18.7418	9,2503773E-003	-3,6764885E-003
03/09/2025 13:53:21.0418	6,7049102E-003	-3,6771761E-003
03/09/2025 13:53:23.3418	7,9776440E-003	-3,6818364E-003
03/09/2025 13:53:25.6418	4,7958097E-003	-3,6796592E-003
03/09/2025 13:53:27.9418	7,9776440E-003	-3,6809579E-003
03/09/2025 13:53:30.2418	8,6140092E-003	-3,6826006E-003
03/09/2025 13:53:32.5418	4,7958097E-003	-3,6841668E-003
03/09/2025 13:53:34.8418	6,7049102E-003	-3,6766031E-003
03/09/2025 13:53:37.1418	7,9776440E-003	-3,6761065E-003
03/09/2025 13:53:39.4418	3,5230771E-003	-3,6820273E-003
03/09/2025 13:53:41.7418	6,0685435E-003	-3,6743493E-003
03/09/2025 13:53:44.0418	6,7049102E-003	-3,6724394E-003
03/09/2025 13:53:46.3418	8,6140092E-003	-3,6800411E-003
03/09/2025 13:53:48.6418	2,8867100E-003	-3,6800792E-003
03/09/2025 13:53:50.9418	1,3068578E-002	-3,6705676E-003
03/09/2025 13:53:53.2418	7,9776440E-003	-3,6741965E-003
03/09/2025 13:53:55.5418	4,7958097E-003	-3,6835172E-003
03/09/2025 13:53:57.8418	1,1159477E-002	-3,6773670E-003
03/09/2025 13:54:00.1418	1,3068578E-002	-3,6826769E-003
03/09/2025 13:54:02.3420	-2,6485235E+001	-1,4453829E-002
03/09/2025 13:54:04.6420	-2,6481419E+001	-1,5878370E-002
03/09/2025 13:54:06.9420	-2,6478872E+001	-1,6646335E-002
03/09/2025 13:54:09.2420	-2,6484600E+001	-1,7079709E-002
03/09/2025 13:54:11.5420	-2,6487148E+001	-1,7323041E-002
03/09/2025 13:54:13.8420	-2,6481419E+001	-1,7456396E-002
03/09/2025 13:54:16.1420	-2,6478237E+001	-1,7508730E-002
03/09/2025 13:54:18.4420	-2,6483328E+001	-1,7535087E-002
03/09/2025 13:54:20.7420	-2,6484600E+001	-1,7557550E-002
03/09/2025 13:54:23.0420	-2,6480146E+001	-1,7574320E-002
03/09/2025 13:54:25.3420	-2,6489691E+001	-1,7576648E-002
03/09/2025 13:54:27.6420	-2,6482693E+001	-1,7594831E-002
03/09/2025 13:54:29.9420	-2,6490330E+001	-1,7612709E-002
03/09/2025 13:54:32.2420	-2,6476965E+001	-1,7625622E-002
03/09/2025 13:54:34.5420	-2,6479511E+001	-1,7644988E-002
03/09/2025 13:54:36.8420	-2,6482054E+001	-1,7669627E-002
03/09/2025 13:54:39.1420	-2,6487783E+001	-1,7689414E-002
03/09/2025 13:54:41.4420	-2,6478237E+001	-1,7707597E-002
03/09/2025 13:54:43.7420	-2,6483328E+001	-1,7729677E-002
03/09/2025 13:54:46.0420	-2,6488420E+001	-1,7743200E-002
03/09/2025 13:54:48.3420	-2,6482693E+001	-1,7759128E-002
03/09/2025 13:54:50.6420	-2,6489691E+001	-1,7772919E-002
03/09/2025 13:54:52.9420	-2,6489056E+001	-1,7792210E-002
03/09/2025 13:54:55.2420	-2,6488420E+001	-1,7811958E-002
03/09/2025 13:54:57.5420	-2,6484600E+001	-1,7837744E-002
03/09/2025 13:54:59.8420	-2,6483328E+001	-1,7854169E-002
03/09/2025 13:55:02.1420	-2,6479511E+001	-1,7876744E-002
03/09/2025 13:55:04.4420	-2,6485235E+001	-1,7895501E-002
03/09/2025 13:55:06.7420	-2,6483963E+001	-1,7923921E-002
03/09/2025 13:55:09.0420	-2,6484600E+001	-1,7933434E-002
03/09/2025 13:55:11.3420	-2,6485235E+001	-1,7956316E-002
03/09/2025 13:55:13.6420	-2,6484600E+001	-1,7983744E-002
03/09/2025 13:55:15.9420	-2,6489691E+001	-1,7993370E-002
03/09/2025 13:55:18.2420	-2,6492872E+001	-1,8006701E-002
03/09/2025 13:55:20.5420	-2,6487783E+001	-1,8027252E-002
03/09/2025 13:55:22.8420	-2,6483963E+001	-1,8042417E-002
03/09/2025 13:55:25.1420	-2,6475691E+001	-1,8053457E-002
03/09/2025 13:55:27.4420	-2,6482693E+001	-1,8083941E-002
03/09/2025 13:55:29.7420	-2,6479511E+001	-1,8112438E-002
03/09/2025 13:55:32.0420	-2,6483963E+001	-1,8123209E-002
03/09/2025 13:55:34.3420	-2,6485235E+001	-1,8141508E-002
03/09/2025 13:55:36.6420	-2,6483963E+001	-1,8168285E-002
03/09/2025 13:55:38.9420	-2,6489056E+001	-1,8178025E-002
03/09/2025 13:55:41.2420	-2,6488420E+001	-1,8198768E-002
03/09/2025 13:55:43.5420	-2,6485235E+001	-1,8220618E-002
03/09/2025 13:55:45.8420	-2,6483328E+001	-1,8244036E-002
03/09/2025 13:55:48.1420	-2,6483328E+001	-1,8253393E-002
03/09/2025 13:55:50.4420	-2,6482054E+001	-1,8276732E-002
03/09/2025 13:55:52.7420	-2,6486509E+001	-1,8296789E-002
03/09/2025 13:55:55.0420	-2,6480783E+001	-1,8310120E-002
03/09/2025 13:55:57.3420	-2,6481419E+001	-1,8320510E-002
03/09/2025 13:55:59.6420	-2,6480783E+001	-1,8354891E-002
03/09/2025 13:56:01.8422	5,3014778E+001	1,2523520E-002
03/09/2025 13:56:04.1422	5,3012230E+001	1,7528169E-002
03/09/2025 13:56:06.4422	5,3016685E+001	2,0093007E-002
03/09/2025 13:56:08.7422	5,3013508E+001	2,1578629E-002
03/09/2025 13:56:11.0422	5,3010960E+001	2,2376200E-002
03/09/2025 13:56:13.3422	5,3017960E+001	2,2782911E-002
03/09/2025 13:56:15.6422	5,3008415E+001	2,2968063E-002
03/09/2025 13:56:17.9422	5,3007137E+001	2,3069257E-002
03/09/2025 13:56:20.2422	5,3018593E+001	2,3096798E-002
03/09/2025 13:56:22.5422	5,3013508E+001	2,3125332E-002
03/09/2025 13:56:24.8422	5,3009045E+001	2,3154326E-002
03/09/2025 13:56:27.1422	5,3012230E+001	2,3169415E-002
03/09/2025 13:56:29.4422	5,3012867E+001	2,3189889E-002
03/09/2025 13:56:31.7422	5,3011597E+001	2,3236532E-002
03/09/2025 13:56:34.0422	5,3013508E+001	2,3262622E-002
03/09/2025 13:56:36.3422	5,3012230E+001	2,3295091E-002
03/09/2025 13:56:38.6422	5,3011597E+001	2,3334360E-002
03/09/2025 13:56:40.9422	5,3012230E+001	2,3374394E-002
03/09/2025 13:56:43.2422	5,3014145E+001	2,3406252E-002
03/09/2025 13:56:45.5422	5,3010323E+001	2,3437310E-002
03/09/2025 13:56:47.8422	5,3008415E+001	2,3484448E-002
03/09/2025 13:56:50.1422	5,3014778E+001	2,3514051E-002
03/09/2025 13:56:52.4422	5,3012867E+001	2,3557447E-002
03/09/2025 13:56:54.7422	5,3015415E+001	2,3591749E-002
03/09/2025 13:56:57.0422	5,3014145E+001	2,3647675E-002
03/09/2025 13:56:59.3422	5,3014145E+001	2,3670977E-002
03/09/2025 13:57:01.6422	5,3012867E+001	2,3722928E-002
03/09/2025 13:57:03.9422	5,3012867E+001	2,3757041E-002
03/09/2025 13:57:06.2422	5,3012867E+001	2,3806164E-002
03/09/2025 13:57:08.5422	5,3010323E+001	2,3831261E-002
03/09/2025 13:57:10.8422	5,3014778E+001	2,3872593E-002
03/09/2025 13:57:13.1422	5,3019230E+001	2,3905063E-002
03/09/2025 13:57:15.4422	5,3016685E+001	2,3934897E-002
03/09/2025 13:57:17.7422	5,3016685E+001	2,3962401E-002
03/09/2025 13:57:20.0422	5,3011597E+001	2,4016606E-002
03/09/2025 13:57:22.3422	5,3007774E+001	2,4047893E-002
03/09/2025 13:57:24.6422	5,3016685E+001	2,4095563E-002
03/09/2025 13:57:26.9422	5,3012230E+001	2,4130786E-002
03/09/2025 13:57:29.2422	5,3016052E+001	2,4186937E-002
03/09/2025 13:57:31.5422	5,3011597E+001	2,4209362E-002
03/09/2025 13:57:33.8422	5,3019871E+001	2,4264293E-002
03/09/2025 13:57:36.1422	5,3009686E+001	2,4295159E-002
03/09/2025 13:57:38.4422	5,3014778E+001	2,4340309E-002
03/09/2025 13:57:40.7422	5,3015415E+001	2,4374919E-002
03/09/2025 13:57:43.0422	5,3014778E+001	2,4415640E-002
03/09/2025 13:57:45.3422	5,3009045E+001	2,4449332E-002
03/09/2025 13:57:47.6422	5,3009045E+001	2,4478745E-002
03/09/2025 13:57:49.9422	5,3009686E+001	2,4521261E-002
03/09/2025 13:57:52.2422	5,3016052E+001	2,4561945E-002
03/09/2025 13:57:54.5422	5,3009686E+001	2,4598196E-002
03/09/2025 13:57:56.8422	5,3015415E+001	2,4637923E-002
03/09/2025 13:57:59.1422	5,3012867E+001	2,4683151E-002
03/09/2025 13:58:01.3426	7,3412773E-003	5,4121222E-003
03/09/2025 13:58:03.6426	6,0685435E-003	1,3316368E-003
03/09/2025 13:58:05.9426	8,6140092E-003	-5,8418966E-004
03/09/2025 13:58:08.2426	3,5230771E-003	-1,6794114E-003
03/09/2025 13:58:10.5426	6,0685435E-003	-2,2571809E-003
03/09/2025 13:58:12.8426	5,4321769E-003	-2,5539922E-003
03/09/2025 13:58:15.1426	1,2432210E-002	-2,6892188E-003
03/09/2025 13:58:17.4426	2,8867100E-003	-2,7313912E-003
03/09/2025 13:58:19.7426	8,6140092E-003	-2,7320024E-003
03/09/2025 13:58:22.0426	1,4341311E-002	-2,7284117E-003
03/09/2025 13:58:24.3426	1,1159477E-002	-2,7162260E-003
03/09/2025 13:58:26.6426	7,9776440E-003	-2,6950252E-003
03/09/2025 13:58:28.9426	3,4124311E-004	-2,6840237E-003
03/09/2025 13:58:31.2426	1,6886778E-002	-2,6782937E-003
03/09/2025 13:58:33.5426	5,4321769E-003	-2,6694697E-003
03/09/2025 13:58:35.8426	5,4321769E-003	-2,6641216E-003
03/09/2025 13:58:38.1426	7,9776440E-003	-2,6735570E-003
03/09/2025 13:58:40.4426	4,7958097E-003	-2,6627465E-003
03/09/2025 13:58:42.7426	1,6139771E-003	-2,6688967E-003
03/09/2025 13:58:45.0426	7,3412773E-003	-2,6698899E-003
03/09/2025 13:58:47.3426	1,4341311E-002	-2,6712650E-003
03/09/2025 13:58:49.6426	1,6139771E-003	-2,6756960E-003
03/09/2025 13:58:51.9426	7,3412773E-003	-2,6730986E-003
03/09/2025 13:58:54.2426	8,6140092E-003	-2,6819992E-003
03/09/2025 13:58:56.5426	7,3412773E-003	-2,6778737E-003
03/09/2025 13:58:58.8426	7,9776440E-003	-2,6764218E-003
03/09/2025 13:59:01.1426	8,6140092E-003	-2,6753908E-003
03/09/2025 13:59:03.4426	9,8867435E-003	-2,6806621E-003
03/09/2025 13:59:05.7426	9,8867435E-003	-2,6690876E-003
03/09/2025 13:59:08.0426	2,2503431E-003	-2,6788670E-003
03/09/2025 13:59:10.3426	1,0523110E-002	-2,6813878E-003
03/09/2025 13:59:12.6426	2,8867100E-003	-2,6764602E-003
03/09/2025 13:59:14.9426	7,3412773E-003	-2,6788670E-003
03/09/2025 13:59:17.2426	9,8867435E-003	-2,6787522E-003
03/09/2025 13:59:19.5426	7,3412773E-003	-2,6733661E-003
03/09/2025 13:59:21.8426	1,6139771E-003	-2,6752760E-003
03/09/2025 13:59:24.1426	9,8867435E-003	-2,6801273E-003
03/09/2025 13:59:26.4426	3,5230771E-003	-2,6693167E-003
03/09/2025 13:59:28.7426	-2,2042233E-003	-2,6727165E-003
03/09/2025 13:59:31.0426	6,0685435E-003	-2,6754290E-003
03/09/2025 13:59:33.3426	2,8867100E-003	-2,6744357E-003
03/09/2025 13:59:35.6426	7,9776440E-003	-2,6736718E-003
03/09/2025 13:59:37.9426	9,8867435E-003	-2,6700427E-003
03/09/2025 13:59:40.2426	2,8867100E-003	-2,6753142E-003
03/09/2025 13:59:42.5426	8,6140092E-003	-2,6800509E-003
03/09/2025 13:59:44.8426	2,2503431E-003	-2,6690876E-003
03/09/2025 13:59:47.1426	1,1159477E-002	-2,6750085E-003
03/09/2025 13:59:49.4426	1,6139771E-003	-2,6837564E-003
03/09/2025 13:59:51.7426	1,3068578E-002	-2,6674068E-003
03/09/2025 13:59:54.0426	9,8867435E-003	-2,6715705E-003
03/09/2025 13:59:56.3426	9,2503773E-003	-2,6776062E-003
03/09/2025 13:59:58.6426	9,2503773E-003	-2,6753908E-003
03/09/2025 14:00:00.8428	-5,2983543E+001	-1,9770868E-002
03/09/2025 14:00:03.1428	-5,2977180E+001	-2,5442833E-002
03/09/2025 14:00:05.4428	-5,2981636E+001	-2,7691761E-002
03/09/2025 14:00:07.7428	-5,2979729E+001	-2,8966254E-002
03/09/2025 14:00:10.0428	-5,2973358E+001	-2,9691093E-002
03/09/2025 14:00:12.3428	-5,2981636E+001	-3,0076487E-002
03/09/2025 14:00:14.6428	-5,2980999E+001	-3,0291820E-002
03/09/2025 14:00:16.9428	-5,2976543E+001	-3,0391825E-002
03/09/2025 14:00:19.2428	-5,2975266E+001	-3,0445991E-002
03/09/2025 14:00:21.5428	-5,2979088E+001	-3,0473039E-002
03/09/2025 14:00:23.8428	-5,2981636E+001	-3,0505622E-002
03/09/2025 14:00:26.1428	-5,2973358E+001	-3,0530874E-002
03/09/2025 14:00:28.4428	-5,2980358E+001	-3,0547068E-002
03/09/2025 14:00:30.7428	-5,2983543E+001	-3,0574152E-002
03/09/2025 14:00:33.0428	-5,2977180E+001	-3,0603260E-002
03/09/2025 14:00:35.3428	-5,2973358E+001	-3,0630114E-002
03/09/2025 14:00:37.6428	-5,2977814E+001	-3,0674310E-002
03/09/2025 14:00:39.9428	-5,2975266E+001	-3,0721908E-002
03/09/2025 14:00:42.2428	-5,2975906E+001	-3,0752316E-002
03/09/2025 14:00:44.5428	-5,2975266E+001	-3,0795597E-002
03/09/2025 14:00:46.8428	-5,2977814E+001	-3,0835096E-002
03/09/2025 14:00:49.1428	-5,2977814E+001	-3,0884562E-002
03/09/2025 14:00:51.4428	-5,2983543E+001	-3,0917911E-002
03/09/2025 14:00:53.7428	-5,2980999E+001	-3,0965470E-002
03/09/2025 14:00:56.0428	-5,2978451E+001	-3,1005504E-002
03/09/2025 14:00:58.3428	-5,2973995E+001	-3,1041907E-002
03/09/2025 14:01:00.6428	-5,2977814E+001	-3,1064980E-002
03/09/2025 14:01:02.9428	-5,2976543E+001	-3,1112766E-002
03/09/2025 14:01:05.2428	-5,2980358E+001	-3,1136909E-002
03/09/2025 14:01:07.5428	-5,2980358E+001	-3,1173619E-002
03/09/2025 14:01:09.8428	-5,2982906E+001	-3,1210024E-002
03/09/2025 14:01:12.1428	-5,2979729E+001	-3,1263847E-002
03/09/2025 14:01:14.4428	-5,2979088E+001	-3,1295553E-002
03/09/2025 14:01:16.7428	-5,2977814E+001	-3,1352319E-002
03/09/2025 14:01:19.0428	-5,2986721E+001	-3,1380966E-002
03/09/2025 14:01:21.3428	-5,2972725E+001	-3,1421915E-002
03/09/2025 14:01:23.6428	-5,2980358E+001	-3,1458586E-002
03/09/2025 14:01:25.9428	-5,2982273E+001	-3,1515241E-002
03/09/2025 14:01:28.2428	-5,2973358E+001	-3,1547595E-002
03/09/2025 14:01:30.5428	-5,2975906E+001	-3,1589806E-002
03/09/2025 14:01:32.8428	-5,2979088E+001	-3,1631023E-002
03/09/2025 14:01:35.1428	-5,2978451E+001	-3,1667657E-002
03/09/2025 14:01:37.4428	-5,2973995E+001	-3,1697489E-002
03/09/2025 14:01:39.7428	-5,2973995E+001	-3,1733014E-002
03/09/2025 14:01:42.0428	-5,2980999E+001	-3,1776026E-002
03/09/2025 14:01:44.3428	-5,2974636E+001	-3,1802997E-002
03/09/2025 14:01:46.6428	-5,2977814E+001	-3,1854261E-002
03/09/2025 14:01:48.9428	-5,2976543E+001	-3,1895440E-002
03/09/2025 14:01:51.2428	-5,2980999E+001	-3,1941701E-002
03/09/2025 14:01:53.5428	-5,2983543E+001	-3,1973481E-002
03/09/2025 14:01:55.8428	-5,2975906E+001	-3,2024555E-002
03/09/2025 14:01:58.1428	-5,2980999E+001	-3,2055039E-002
03/09/2025 14:02:00.4428	-5,2977180E+001	-3,2100227E-002
03/09/2025 14:02:02.6430	7,9502274E+001	2,3041101E-002
03/09/2025 14:02:04.9430	7,9509262E+001	2,9465251E-002
03/09/2025 14:02:07.2430	7,9507347E+001	3,2982484E-002
03/09/2025 14:02:09.5430	7,9509903E+001	3,4993809E-002
03/09/2025 14:02:11.8430	7,9512444E+001	3,6076766E-002
03/09/2025 14:02:14.1430	7,9507347E+001	3,6622409E-002
03/09/2025 14:02:16.4430	7,9506721E+001	3,6846641E-002
03/09/2025 14:02:18.7430	7,9514992E+001	3,6970258E-002
03/09/2025 14:02:21.0430	7,9507996E+001	3,7012428E-002
03/09/2025 14:02:23.3430	7,9516899E+001	3,7030268E-002
03/09/2025 14:02:25.6430	7,9503532E+001	3,7024122E-002
03/09/2025 14:02:27.9430	7,9513718E+001	3,7065029E-002
03/09/2025 14:02:30.2430	7,9513718E+001	3,7084360E-002
03/09/2025 14:02:32.5430	7,9509903E+001	3,7127219E-002
03/09/2025 14:02:34.8430	7,9509903E+001	3,7174396E-002
03/09/2025 14:02:37.1430	7,9511810E+001	3,7240405E-002
03/09/2025 14:02:39.4430	7,9509903E+001	3,7293579E-002
03/09/2025 14:02:41.7430	7,9509903E+001	3,7363101E-002
03/09/2025 14:02:44.0430	7,9509903E+001	3,7434265E-002
03/09/2025 14:02:46.3430	7,9500359E+001	3,7502527E-002
03/09/2025 14:02:48.6430	7,9511177E+001	3,7556127E-002
03/09/2025 14:02:50.9430	7,9505440E+001	3,7641693E-002
03/09/2025 14:02:53.2429	7,9509903E+001	3,7696775E-002
03/09/2025 14:02:55.5430	7,9501625E+001	3,7749682E-002
03/09/2025 14:02:57.8429	7,9508629E+001	3,7795406E-002
03/09/2025 14:03:00.1430	7,9509903E+001	3,7859734E-002
03/09/2025 14:03:02.4429	7,9516266E+001	3,7905309E-002
03/09/2025 14:03:04.7429	7,9506088E+001	3,7957411E-002
03/09/2025 14:03:07.0429	7,9513718E+001	3,8017955E-002
03/09/2025 14:03:09.3429	7,9506721E+001	3,8068727E-002
03/09/2025 14:03:11.6429	7,9509903E+001	3,8136110E-002
03/09/2025 14:03:13.9429	7,9504181E+001	3,8195167E-002
03/09/2025 14:03:16.2429	7,9507347E+001	3,8269926E-002
03/09/2025 14:03:18.5429	7,9511177E+001	3,8307816E-002
03/09/2025 14:03:20.8429	7,9511177E+001	3,8379058E-002
03/09/2025 14:03:23.1429	7,9504814E+001	3,8441706E-002
03/09/2025 14:03:25.4429	7,9510536E+001	3,8503855E-002
03/09/2025 14:03:27.7429	7,9510536E+001	3,8550537E-002
03/09/2025 14:03:30.0429	7,9507347E+001	3,8621400E-002
03/09/2025 14:03:32.3429	7,9514359E+001	3,8658336E-002
03/09/2025 14:03:34.6429	7,9508629E+001	3,8715027E-002
03/09/2025 14:03:36.9429	7,9516266E+001	3,8758688E-002
03/09/2025 14:03:39.2429	7,9507996E+001	3,8826339E-002
03/09/2025 14:03:41.5429	7,9509903E+001	3,8877029E-002
03/09/2025 14:03:43.8429	7,9506721E+001	3,8955186E-002
03/09/2025 14:03:46.1429	7,9509903E+001	3,9014854E-002
03/09/2025 14:03:48.4429	7,9516266E+001	3,9086670E-002
03/09/2025 14:03:50.7429	7,9504814E+001	3,9123721E-002
03/09/2025 14:03:53.0429	7,9514359E+001	3,9210051E-002
03/09/2025 14:03:55.3429	7,9518806E+001	3,9264947E-002
03/09/2025 14:03:57.6429	7,9509262E+001	3,9330345E-002
03/09/2025 14:03:59.9429	7,9509262E+001	3,9383288E-002
03/09/2025 14:04:02.1433	9,8867435E-003	7,5971032E-003
03/09/2025 14:04:04.4433	2,2503431E-003	3,1228559E-003
03/09/2025 14:04:06.7433	6,7049102E-003	7,8484719E-004
03/09/2025 14:04:09.0433	1,3704944E-002	-5,4877857E-004
03/09/2025 14:04:11.3433	7,3412773E-003	-1,2545169E-003
03/09/2025 14:04:13.6433	4,7958097E-003	-1,5897187E-003
03/09/2025 14:04:15.9433	1,6139771E-003	-1,7247543E-003
03/09/2025 14:04:18.2433	8,6140092E-003	-1,7748342E-003
03/09/2025 14:04:20.5433	1,1795843E-002	-1,7726950E-003
03/09/2025 14:04:22.8433	1,4341311E-002	-1,7509976E-003
03/09/2025 14:04:25.1433	6,7049102E-003	-1,7278485E-003
03/09/2025 14:04:27.4433	5,4321769E-003	-1,7098566E-003
03/09/2025 14:04:29.7433	6,7049102E-003	-1,6846065E-003
03/09/2025 14:04:32.0433	2,2503431E-003	-1,6690211E-003
03/09/2025 14:04:34.3433	1,3068578E-002	-1,6774250E-003
03/09/2025 14:04:36.6433	8,6140092E-003	-1,6737961E-003
03/09/2025 14:04:38.9433	1,1795843E-002	-1,6634058E-003
03/09/2025 14:04:41.2433	9,2503773E-003	-1,6750185E-003
03/09/2025 14:04:43.5433	4,7958097E-003	-1,6769284E-003
03/09/2025 14:04:45.8433	-4,1133231E-003	-1,6705109E-003
03/09/2025 14:04:48.1433	8,6140092E-003	-1,6775778E-003
03/09/2025 14:04:50.4433	7,3412773E-003	-1,6820473E-003
03/09/2025 14:04:52.7433	7,9776440E-003	-1,6724209E-003
03/09/2025 14:04:55.0433	8,6140092E-003	-1,6687919E-003
03/09/2025 14:04:57.3433	5,4321769E-003	-1,6729175E-003
03/09/2025 14:04:59.6433	7,3412773E-003	-1,6743691E-003
03/09/2025 14:05:01.9433	7,3412773E-003	-1,6750568E-003
03/09/2025 14:05:04.2433	7,3412773E-003	-1,6808248E-003
03/09/2025 14:05:06.5433	1,3068578E-002	-1,6743691E-003
03/09/2025 14:05:08.8433	5,4321769E-003	-1,6685246E-003
03/09/2025 14:05:11.1433	1,0523110E-002	-1,6750185E-003
03/09/2025 14:05:13.4433	9,2503773E-003	-1,6809012E-003
03/09/2025 14:05:15.7433	7,3412773E-003	-1,6749421E-003
03/09/2025 14:05:18.0433	1,0523110E-002	-1,6747129E-003
03/09/2025 14:05:20.3433	5,4321769E-003	-1,6781510E-003
03/09/2025 14:05:22.6433	4,7958097E-003	-1,6775015E-003
03/09/2025 14:05:24.9433	7,3412773E-003	-1,6718861E-003
03/09/2025 14:05:27.2433	9,2503773E-003	-1,6745982E-003
03/09/2025 14:05:29.5433	1,0523110E-002	-1,6762026E-003
03/09/2025 14:05:31.8433	1,0523110E-002	-1,6680281E-003
03/09/2025 14:05:34.1433	9,8867435E-003	-1,6799462E-003
03/09/2025 14:05:36.4433	6,7049102E-003	-1,6745601E-003
03/09/2025 14:05:38.7433	7,3412773E-003	-1,6733758E-003
03/09/2025 14:05:41.0433	1,1159477E-002	-1,6732231E-003
03/09/2025 14:05:43.3433	5,4321769E-003	-1,6854088E-003
03/09/2025 14:05:45.6433	2,8867100E-003	-1,6708166E-003
03/09/2025 14:05:47.9433	1,1159477E-002	-1,6731084E-003
03/09/2025 14:05:50.2433	3,5230771E-003	-1,6768903E-003
03/09/2025 14:05:52.5433	3,5230771E-003	-1,6828494E-003
03/09/2025 14:05:54.8433	7,9776440E-003	-1,6806338E-003
03/09/2025 14:05:57.1433	7,3412773E-003	-1,6727647E-003
03/09/2025 14:05:59.4433	3,5230771E-003	-1,6779216E-003
03/09/2025 14:06:01.6435	-7,9476761E+001	-3,1795356E-002
03/09/2025 14:06:03.9435	-7,9480576E+001	-3,7246786E-002
03/09/2025 14:06:06.2435	-7,9471664E+001	-4,0016796E-002
03/09/2025 14:06:08.5435	-7,9473579E+001	-4,1582789E-002
03/09/2025 14:06:10.8435	-7,9477394E+001	-4,2502489E-002
03/09/2025 14:06:13.1435	-7,9476120E+001	-4,2940866E-002
03/09/2025 14:06:15.4435	-7,9480576E+001	-4,3177586E-002
03/09/2025 14:06:17.7435	-7,9479942E+001	-4,3286189E-002
03/09/2025 14:06:20.0435	-7,9476761E+001	-4,3360680E-002
03/09/2025 14:06:22.3435	-7,9471031E+001	-4,3381155E-002
03/09/2025 14:06:24.6435	-7,9476120E+001	-4,3423630E-002
03/09/2025 14:06:26.9435	-7,9471031E+001	-4,3457896E-002
03/09/2025 14:06:29.2435	-7,9468491E+001	-4,3507520E-002
03/09/2025 14:06:31.5435	-7,9481209E+001	-4,3546025E-002
03/09/2025 14:06:33.8435	-7,9477394E+001	-4,3616731E-002
03/09/2025 14:06:36.1435	-7,9475487E+001	-4,3668337E-002
03/09/2025 14:06:38.4435	-7,9476761E+001	-4,3732934E-002
03/09/2025 14:06:40.7435	-7,9476761E+001	-4,3787446E-002
03/09/2025 14:06:43.0435	-7,9469749E+001	-4,3864761E-002
03/09/2025 14:06:45.3435	-7,9474213E+001	-4,3907277E-002
03/09/2025 14:06:47.6435	-7,9480576E+001	-4,3963853E-002
03/09/2025 14:06:49.9435	-7,9471031E+001	-4,4027112E-002
03/09/2025 14:06:52.2435	-7,9472939E+001	-4,4075929E-002
03/09/2025 14:06:54.5435	-7,9476761E+001	-4,4135291E-002
03/09/2025 14:06:56.8435	-7,9478668E+001	-4,4192400E-002
03/09/2025 14:06:59.1435	-7,9475487E+001	-4,4254437E-002
03/09/2025 14:07:01.4435	-7,9473579E+001	-4,4298366E-002
03/09/2025 14:07:03.7435	-7,9462761E+001	-4,4365138E-002
03/09/2025 14:07:06.0435	-7,9472305E+001	-4,4423815E-002
03/09/2025 14:07:08.3435	-7,9471031E+001	-4,4483136E-002
03/09/2025 14:07:10.6435	-7,9474846E+001	-4,4534173E-002
03/09/2025 14:07:12.9435	-7,9482483E+001	-4,4623177E-002
03/09/2025 14:07:15.2435	-7,9466583E+001	-4,4678528E-002
03/09/2025 14:07:17.5435	-7,9473579E+001	-4,4737659E-002
03/09/2025 14:07:19.8435	-7,9474846E+001	-4,4787358E-002
03/09/2025 14:07:22.1435	-7,9478027E+001	-4,4851609E-002
03/09/2025 14:07:24.4435	-7,9474846E+001	-4,4877890E-002
03/09/2025 14:07:26.7435	-7,9475487E+001	-4,4931445E-002
03/09/2025 14:07:29.0435	-7,9471031E+001	-4,4993676E-002
03/09/2025 14:07:31.3435	-7,9471031E+001	-4,5070991E-002
03/09/2025 14:07:33.6435	-7,9471031E+001	-4,5121148E-002
03/09/2025 14:07:35.9435	-7,9481850E+001	-4,5204535E-002
03/09/2025 14:07:38.2435	-7,9475487E+001	-4,5259010E-002
03/09/2025 14:07:40.5435	-7,9473579E+001	-4,5318142E-002
03/09/2025 14:07:42.8435	-7,9474846E+001	-4,5369104E-002
03/09/2025 14:07:45.1435	-7,9470398E+001	-4,5446072E-002
03/09/2025 14:07:47.4435	-7,9478027E+001	-4,5504559E-002
03/09/2025 14:07:49.7435	-7,9476120E+001	-4,5560673E-002
03/09/2025 14:07:52.0435	-7,9472305E+001	-4,5619499E-002
03/09/2025 14:07:54.3435	-7,9478027E+001	-4,5673132E-002
03/09/2025 14:07:56.6435	-7,9473579E+001	-4,5725275E-002
03/09/2025 14:07:58.9435	-7,9481850E+001	-4,5788761E-002
03/09/2025 14:08:01.1437	1,0600503E+002	1,9366030E-002
03/09/2025 14:08:03.4437	1,0601140E+002	3,5205320E-002
03/09/2025 14:08:05.7437	1,0600249E+002	4,2382572E-002
03/09/2025 14:08:08.0437	1,0600822E+002	4,6453126E-002
03/09/2025 14:08:10.3437	1,0600822E+002	4,8740864E-002
03/09/2025 14:08:12.6437	1,0601140E+002	4,9940333E-002
03/09/2025 14:08:14.9437	1,0601776E+002	5,0499041E-002
03/09/2025 14:08:17.2437	1,0600822E+002	5,0739963E-002
03/09/2025 14:08:19.5437	1,0601394E+002	5,0853342E-002
03/09/2025 14:08:21.8437	1,0601522E+002	5,0902694E-002
03/09/2025 14:08:24.1437	1,0601203E+002	5,0942153E-002
03/09/2025 14:08:26.4437	1,0601839E+002	5,0955411E-002
03/09/2025 14:08:28.7437	1,0601331E+002	5,1011447E-002
03/09/2025 14:08:31.0437	1,0601648E+002	5,1051904E-002
03/09/2025 14:08:33.3437	1,0601076E+002	5,1124368E-002
03/09/2025 14:08:35.6437	1,0600949E+002	5,1185220E-002
03/09/2025 14:08:37.9437	1,0601648E+002	5,1286831E-002
03/09/2025 14:08:40.2437	1,0601266E+002	5,1339395E-002
03/09/2025 14:08:42.5437	1,0601522E+002	5,1417854E-002
03/09/2025 14:08:44.8437	1,0601331E+002	5,1484589E-002
03/09/2025 14:08:47.1437	1,0601457E+002	5,1564466E-002
03/09/2025 14:08:49.4437	1,0601140E+002	5,1627878E-002
03/09/2025 14:08:51.7437	1,0601140E+002	5,1726129E-002
03/09/2025 14:08:54.0437	1,0600631E+002	5,1799010E-002
03/09/2025 14:08:56.3437	1,0601140E+002	5,1890843E-002
03/09/2025 14:08:58.6437	1,0600503E+002	5,1967703E-002
03/09/2025 14:09:00.9437	1,0600503E+002	5,2054875E-002
03/09/2025 14:09:03.2437	1,0601266E+002	5,2129935E-002
03/09/2025 14:09:05.5437	1,0600949E+002	5,2236892E-002
03/09/2025 14:09:07.8437	1,0600949E+002	5,2312456E-002
03/09/2025 14:09:10.1437	1,0601140E+002	5,2405659E-002
03/09/2025 14:09:12.4437	1,0600885E+002	5,2467849E-002
03/09/2025 14:09:14.7437	1,0601713E+002	5,2538592E-002
03/09/2025 14:09:17.0437	1,0601140E+002	5,2612208E-002
03/09/2025 14:09:19.3437	1,0600885E+002	5,2673250E-002
03/09/2025 14:09:21.6437	1,0601076E+002	5,2741397E-002
03/09/2025 14:09:23.9437	1,0601331E+002	5,2824520E-002
03/09/2025 14:09:26.2437	1,0601203E+002	5,2922767E-002
03/09/2025 14:09:28.5437	1,0600758E+002	5,2996989E-002
03/09/2025 14:09:30.8437	1,0601776E+002	5,3084351E-002
03/09/2025 14:09:33.1437	1,0600694E+002	5,3159799E-002
03/09/2025 14:09:35.4437	1,0600375E+002	5,3246509E-002
03/09/2025 14:09:37.7437	1,0600375E+002	5,3313207E-002
03/09/2025 14:09:40.0437	1,0601203E+002	5,3413633E-002
03/09/2025 14:09:42.3437	1,0601076E+002	5,3481590E-002
03/09/2025 14:09:44.6437	1,0601457E+002	5,3572241E-002
03/09/2025 14:09:46.9437	1,0600249E+002	5,3621404E-002
03/09/2025 14:09:49.2437	1,0600249E+002	5,3701736E-002
03/09/2025 14:09:51.5437	1,0601012E+002	5,3763237E-002
03/09/2025 14:09:53.8437	1,0601331E+002	5,3853273E-002
03/09/2025 14:09:56.1437	1,0601331E+002	5,3911109E-002
03/09/2025 14:09:58.4437	1,0600631E+002	5,4001909E-002
03/09/2025 14:10:00.7437	1,0601585E+002	5,4082394E-002
03/09/2025 14:10:02.9441	7,3412773E-003	9,0654977E-003
03/09/2025 14:10:05.2441	5,4321769E-003	4,4058291E-003
03/09/2025 14:10:07.5441	1,6250411E-002	1,8615040E-003
03/09/2025 14:10:09.8441	9,8867435E-003	4,1232433E-004
03/09/2025 14:10:12.1441	7,3412773E-003	-3,2401190E-004
03/09/2025 14:10:14.4441	7,9776440E-003	-6,4916717E-004
03/09/2025 14:10:16.7441	7,9776440E-003	-7,8110874E-004
03/09/2025 14:10:19.0441	8,6140092E-003	-8,1445707E-004
03/09/2025 14:10:21.3441	8,6140092E-003	-7,9764921E-004
03/09/2025 14:10:23.6441	1,3704944E-002	-7,7140605E-004
03/09/2025 14:10:25.9441	9,8867435E-003	-7,4115192E-004
03/09/2025 14:10:28.2441	1,1795843E-002	-7,1364822E-004
03/09/2025 14:10:30.5441	7,9776440E-003	-6,8553328E-004
03/09/2025 14:10:32.8441	5,4321769E-003	-6,7942130E-004
03/09/2025 14:10:35.1441	1,2432210E-002	-6,7659456E-004
03/09/2025 14:10:37.4441	3,5230771E-003	-6,6685368E-004
03/09/2025 14:10:39.7441	7,3412773E-003	-6,6635705E-004
03/09/2025 14:10:42.0441	1,3068578E-002	-6,7678554E-004
03/09/2025 14:10:44.3441	1,5614044E-002	-6,7495200E-004
03/09/2025 14:10:46.6441	7,9776440E-003	-6,6979503E-004
03/09/2025 14:10:48.9441	1,2432210E-002	-6,7888654E-004
03/09/2025 14:10:51.2441	1,4341311E-002	-6,7525759E-004
03/09/2025 14:10:53.5441	1,1795843E-002	-6,7369139E-004
03/09/2025 14:10:55.8441	3,5230771E-003	-6,7732035E-004
03/09/2025 14:10:58.1441	8,6140092E-003	-6,8289752E-004
03/09/2025 14:11:00.4441	1,1159477E-002	-6,6746486E-004
03/09/2025 14:11:02.7441	6,7049102E-003	-6,7548675E-004
03/09/2025 14:11:05.0441	7,3412773E-003	-6,8159873E-004
03/09/2025 14:11:07.3441	1,0523110E-002	-6,7552493E-004
03/09/2025 14:11:09.6441	7,9776440E-003	-6,6750305E-004
03/09/2025 14:11:11.9441	9,8867435E-003	-6,8029994E-004
03/09/2025 14:11:14.2441	7,3412773E-003	-6,8366143E-004
03/09/2025 14:11:16.5441	1,1159477E-002	-6,7185779E-004
03/09/2025 14:11:18.8441	1,6139771E-003	-6,8010890E-004
03/09/2025 14:11:21.1441	2,8867100E-003	-6,8347051E-004
03/09/2025 14:11:23.4441	9,8867435E-003	-6,8186613E-004
03/09/2025 14:11:25.7441	3,5230771E-003	-6,7965052E-004
03/09/2025 14:11:28.0441	1,4977678E-002	-6,8572426E-004
03/09/2025 14:11:30.3441	1,0523110E-002	-6,8278291E-004
03/09/2025 14:11:32.6441	7,3412773E-003	-6,7919213E-004
03/09/2025 14:11:34.9441	6,7049102E-003	-6,7938311E-004
03/09/2025 14:11:37.2441	2,2503431E-003	-6,8675564E-004
03/09/2025 14:11:39.5441	9,8867435E-003	-6,7628897E-004
03/09/2025 14:11:41.8441	1,3068578E-002	-6,8068190E-004
03/09/2025 14:11:44.1441	1,2432210E-002	-6,8083470E-004
03/09/2025 14:11:46.4441	7,9776440E-003	-6,7854271E-004
03/09/2025 14:11:48.7441	7,3412773E-003	-6,7388237E-004
03/09/2025 14:11:51.0441	1,5614044E-002	-6,8220991E-004
03/09/2025 14:11:53.3441	1,4977678E-002	-6,7949772E-004
03/09/2025 14:11:55.6441	7,9776440E-003	-6,7774049E-004
03/09/2025 14:11:57.9441	1,0523110E-002	-6,7483733E-004
03/09/2025 14:12:00.2441	1,1795843E-002	-6,7953591E-004
03/09/2025 14:12:02.4443	-1,0597697E+002	-4,4056181E-002
03/09/2025 14:12:04.7443	-1,0598079E+002	-4,9582444E-002
03/09/2025 14:12:07.0443	-1,0597697E+002	-5,2604072E-002
03/09/2025 14:12:09.3443	-1,0597633E+002	-5,4353043E-002
03/09/2025 14:12:11.6443	-1,0596933E+002	-5,5331260E-002
03/09/2025 14:12:13.9443	-1,0598016E+002	-5,5821743E-002
03/09/2025 14:12:16.2443	-1,0597251E+002	-5,6069013E-002
03/09/2025 14:12:18.5443	-1,0597633E+002	-5,6202214E-002
03/09/2025 14:12:20.8443	-1,0597888E+002	-5,6293320E-002
03/09/2025 14:12:23.1443	-1,0597314E+002	-5,6326784E-002
03/09/2025 14:12:25.4443	-1,0597761E+002	-5,6397032E-002
03/09/2025 14:12:27.7443	-1,0597570E+002	-5,6431487E-002
03/09/2025 14:12:30.0443	-1,0596870E+002	-5,6497000E-002
03/09/2025 14:12:32.3443	-1,0597825E+002	-5,6536075E-002
03/09/2025 14:12:34.6443	-1,0597888E+002	-5,6612056E-002
03/09/2025 14:12:36.9443	-1,0597633E+002	-5,6672603E-002
03/09/2025 14:12:39.2443	-1,0597314E+002	-5,6762524E-002
03/09/2025 14:12:41.5443	-1,0597251E+002	-5,6832775E-002
03/09/2025 14:12:43.8443	-1,0597443E+002	-5,6936715E-002
03/09/2025 14:12:46.1443	-1,0597633E+002	-5,7007805E-002
03/09/2025 14:12:48.4443	-1,0596997E+002	-5,7105213E-002
03/09/2025 14:12:50.7443	-1,0597314E+002	-5,7180315E-002
03/09/2025 14:12:53.0443	-1,0597697E+002	-5,7282880E-002
03/09/2025 14:12:55.3443	-1,0597888E+002	-5,7352021E-002
03/09/2025 14:12:57.6443	-1,0597570E+002	-5,7451684E-002
03/09/2025 14:12:59.9443	-1,0597633E+002	-5,7517275E-002
03/09/2025 14:13:02.2443	-1,0597314E+002	-5,7590347E-002
03/09/2025 14:13:04.5443	-1,0597697E+002	-5,7669040E-002
03/09/2025 14:13:06.8443	-1,0596679E+002	-5,7740360E-002
03/09/2025 14:13:09.1443	-1,0596997E+002	-5,7819929E-002
03/09/2025 14:13:11.4443	-1,0597314E+002	-5,7887927E-002
03/09/2025 14:13:13.7443	-1,0597189E+002	-5,7983194E-002
03/09/2025 14:13:16.0443	-1,0598142E+002	-5,8069028E-002
03/09/2025 14:13:18.3443	-1,0598016E+002	-5,8150090E-002
03/09/2025 14:13:20.6443	-1,0597379E+002	-5,8219764E-002
03/09/2025 14:13:22.9443	-1,0597060E+002	-5,8315109E-002
03/09/2025 14:13:25.2443	-1,0597825E+002	-5,8377646E-002
03/09/2025 14:13:27.5443	-1,0597060E+002	-5,8481354E-002
03/09/2025 14:13:29.8443	-1,0597888E+002	-5,8555156E-002
03/09/2025 14:13:32.1443	-1,0597379E+002	-5,8646224E-002
03/09/2025 14:13:34.4443	-1,0596679E+002	-5,8691878E-002
03/09/2025 14:13:36.7443	-1,0596488E+002	-5,8790009E-002
03/09/2025 14:13:39.0443	-1,0597379E+002	-5,8840316E-002
03/09/2025 14:13:41.3443	-1,0597697E+002	-5,8926687E-002
03/09/2025 14:13:43.6443	-1,0598016E+002	-5,8981847E-002
03/09/2025 14:13:45.9443	-1,0597570E+002	-5,9074406E-002
03/09/2025 14:13:48.2443	-1,0597251E+002	-5,9152789E-002
03/09/2025 14:13:50.5443	-1,0597570E+002	-5,9255317E-002
03/09/2025 14:13:52.8443	-1,0597251E+002	-5,9336416E-002
03/09/2025 14:13:55.1443	-1,0597507E+002	-5,9445173E-002
03/09/2025 14:13:57.4443	-1,0597443E+002	-5,9510186E-002
03/09/2025 14:13:59.7443	-1,0597888E+002	-5,9610687E-002
03/09/2025 14:14:00.7445	-1,0596933E+002	-5,9658740E-002