File: data/phase_2a/Sergey/2/20.7/02 polarisation/SN50_C6aD1E1_hr 0,1MFeCN6_in_1M_KCl_3306mL_symmetric_balanced_4_point_PEIS_10mHz_200kHz_10mV_01_03_CP_C16.txt
time/s	I/mA	<Ewe/V>
31/08/2025 10:57:17.8517	1,0523378E-001	-2,6319185E-002
31/08/2025 10:57:21.2517	1,3068911E-001	-1,4133554E-002
31/08/2025 10:57:24.6517	1,2432528E-001	-1,0053221E-002
31/08/2025 10:57:28.0517	7,9778478E-002	-8,2251392E-003
31/08/2025 10:57:31.4517	9,8869957E-002	-7,3623238E-003
31/08/2025 10:57:34.8517	1,4978060E-001	-6,9719995E-003
31/08/2025 10:57:38.2517	9,2506140E-002	-6,8444517E-003
31/08/2025 10:57:41.6517	1,8159975E-001	-6,8320748E-003
31/08/2025 10:57:45.0517	7,9778478E-002	-6,8503725E-003
31/08/2025 10:57:48.4517	6,0686987E-002	-6,8851719E-003
31/08/2025 10:57:51.8517	1,0523378E-001	-6,9134780E-003
31/08/2025 10:57:55.2517	1,0523378E-001	-6,9302861E-003
31/08/2025 10:57:58.6517	7,9778478E-002	-6,9488892E-003
31/08/2025 10:58:02.0517	1,4341676E-001	-6,9589359E-003
31/08/2025 10:58:05.4517	8,6142294E-002	-6,9648568E-003
31/08/2025 10:58:08.8517	1,4341676E-001	-6,9698608E-003
31/08/2025 10:58:12.2517	7,9778478E-002	-6,9677597E-003
31/08/2025 10:58:15.6517	4,1595493E-002	-6,9752471E-003
31/08/2025 10:58:19.0517	1,1796144E-001	-6,9651236E-003
31/08/2025 10:58:22.4517	1,3705294E-001	-6,9709686E-003
31/08/2025 10:58:25.8517	1,6250826E-001	-6,9715031E-003
31/08/2025 10:58:29.2517	1,4341676E-001	-6,9664996E-003
31/08/2025 10:58:32.6517	1,4341676E-001	-6,9703194E-003
31/08/2025 10:58:36.0517	1,0523378E-001	-6,9729546E-003
31/08/2025 10:58:39.4517	9,2506140E-002	-6,9728023E-003
31/08/2025 10:58:42.8517	1,6250826E-001	-6,9771186E-003
31/08/2025 10:58:46.2517	9,8869957E-002	-6,9679893E-003
31/08/2025 10:58:49.6517	1,6250826E-001	-6,9646272E-003
31/08/2025 10:58:53.0517	9,8869957E-002	-6,9718091E-003
31/08/2025 10:58:56.4517	1,2432528E-001	-6,9696698E-003
31/08/2025 10:58:59.8517	9,2506140E-002	-6,9732987E-003
31/08/2025 10:59:03.2517	1,1159762E-001	-6,9643981E-003
31/08/2025 10:59:06.6517	1,1796144E-001	-6,9734138E-003
31/08/2025 10:59:10.0517	6,7050815E-002	-6,9680270E-003
31/08/2025 10:59:13.4517	6,0686987E-002	-6,9717709E-003
31/08/2025 10:59:16.8517	1,3068911E-001	-6,9744065E-003
31/08/2025 10:59:20.2515	1,3257471E+002	5,0630152E-002
31/08/2025 10:59:23.6515	1,3265106E+002	5,7597231E-002
31/08/2025 10:59:27.0515	1,3258743E+002	6,0709011E-002
31/08/2025 10:59:30.4515	1,3254926E+002	6,2295441E-002
31/08/2025 10:59:33.8515	1,3258743E+002	6,3153639E-002
31/08/2025 10:59:37.2515	1,3253653E+002	6,3520119E-002
31/08/2025 10:59:40.6515	1,3257471E+002	6,3727587E-002
31/08/2025 10:59:44.0515	1,3260652E+002	6,3872166E-002
31/08/2025 10:59:47.4515	1,3256197E+002	6,3977145E-002
31/08/2025 10:59:50.8515	1,3256834E+002	6,4085670E-002
31/08/2025 10:59:54.2515	1,3253653E+002	6,4184263E-002
31/08/2025 10:59:57.6515	1,3256834E+002	6,4311773E-002
31/08/2025 11:00:01.0515	1,3257471E+002	6,4475149E-002
31/08/2025 11:00:04.4515	1,3256197E+002	6,4580202E-002
31/08/2025 11:00:07.8515	1,3261288E+002	6,4725205E-002
31/08/2025 11:00:11.2515	1,3264470E+002	6,4856879E-002
31/08/2025 11:00:14.6515	1,3263834E+002	6,5032713E-002
31/08/2025 11:00:18.0515	1,3261288E+002	6,5173514E-002
31/08/2025 11:00:21.4515	1,3259380E+002	6,5289333E-002
31/08/2025 11:00:24.8515	1,3263834E+002	6,5481365E-002
31/08/2025 11:00:28.2515	1,3263834E+002	6,5643944E-002
31/08/2025 11:00:31.6515	1,3258743E+002	6,5742463E-002
31/08/2025 11:00:35.0515	1,3260016E+002	6,5922156E-002
31/08/2025 11:00:38.4515	1,3256834E+002	6,6063300E-002
31/08/2025 11:00:41.8515	1,3260652E+002	6,6204071E-002
31/08/2025 11:00:45.2515	1,3258107E+002	6,6354841E-002
31/08/2025 11:00:48.6515	1,3252379E+002	6,6473566E-002
31/08/2025 11:00:52.0515	1,3260652E+002	6,6621058E-002
31/08/2025 11:00:55.4515	1,3258107E+002	6,6791736E-002
31/08/2025 11:00:58.8515	1,3261925E+002	6,6901863E-002
31/08/2025 11:01:02.2515	1,3264470E+002	6,7051455E-002
31/08/2025 11:01:05.6515	1,3258743E+002	6,7211397E-002
31/08/2025 11:01:09.0515	1,3264470E+002	6,7372561E-002
31/08/2025 11:01:12.4515	1,3259380E+002	6,7505375E-002
31/08/2025 11:01:15.8515	1,3254289E+002	6,7632549E-002
31/08/2025 11:01:19.1517	1,1159762E-001	1,4216231E-002
31/08/2025 11:01:22.5517	8,6142294E-002	4,8418110E-003
31/08/2025 11:01:25.9517	1,8159975E-001	1,0148949E-003
31/08/2025 11:01:29.3517	1,3705294E-001	-7,4480957E-004
31/08/2025 11:01:32.7517	1,3068911E-001	-1,5881811E-003
31/08/2025 11:01:36.1517	1,0523378E-001	-1,9588706E-003
31/08/2025 11:01:39.5517	9,8869957E-002	-2,0503968E-003
31/08/2025 11:01:42.9517	1,9432738E-001	-2,0505495E-003
31/08/2025 11:01:46.3517	6,7050815E-002	-2,0032204E-003
31/08/2025 11:01:49.7517	2,0069122E-001	-1,9658611E-003
31/08/2025 11:01:53.1517	7,9778478E-002	-1,9398088E-003
31/08/2025 11:01:56.5517	1,4341676E-001	-1,9161633E-003
31/08/2025 11:01:59.9517	7,9778478E-002	-1,8927469E-003
31/08/2025 11:02:03.3517	1,1159762E-001	-1,8890033E-003
31/08/2025 11:02:06.7517	8,6142294E-002	-1,8819746E-003
31/08/2025 11:02:10.1517	1,7523590E-001	-1,8795299E-003
31/08/2025 11:02:13.5517	1,5614443E-001	-1,8826622E-003
31/08/2025 11:02:16.9517	7,9778478E-002	-1,8815162E-003
31/08/2025 11:02:20.3517	1,3068911E-001	-1,8854889E-003
31/08/2025 11:02:23.7517	1,1796144E-001	-1,8853362E-003
31/08/2025 11:02:27.1517	9,2506140E-002	-1,8803320E-003
31/08/2025 11:02:30.5517	1,1159762E-001	-1,8789950E-003
31/08/2025 11:02:33.9517	1,3705294E-001	-1,8846486E-003
31/08/2025 11:02:37.3517	1,6250826E-001	-1,8806376E-003
31/08/2025 11:02:40.7517	1,4341676E-001	-1,8891942E-003
31/08/2025 11:02:44.1517	1,1796144E-001	-1,8810577E-003
31/08/2025 11:02:47.5517	7,9778478E-002	-1,8920210E-003
31/08/2025 11:02:50.9517	1,2432528E-001	-1,8830441E-003
31/08/2025 11:02:54.3517	1,2432528E-001	-1,8930525E-003
31/08/2025 11:02:57.7517	1,5614443E-001	-1,8900728E-003
31/08/2025 11:03:01.1517	7,9778478E-002	-1,8920592E-003
31/08/2025 11:03:04.5517	2,0705505E-001	-1,8885450E-003
31/08/2025 11:03:07.9517	1,4978060E-001	-1,8960320E-003
31/08/2025 11:03:11.3517	1,3705294E-001	-1,8893854E-003
31/08/2025 11:03:14.7517	4,1595493E-002	-1,8929379E-003
31/08/2025 11:03:18.0519	-1,3237695E+002	-4,6977334E-002
31/08/2025 11:03:21.4519	-1,3236423E+002	-6,2101182E-002
31/08/2025 11:03:24.8519	-1,3233878E+002	-6,7434691E-002
31/08/2025 11:03:28.2519	-1,3236423E+002	-6,9892682E-002
31/08/2025 11:03:31.6519	-1,3235785E+002	-7,1200758E-002
31/08/2025 11:03:35.0519	-1,3244696E+002	-7,1874633E-002
31/08/2025 11:03:38.4519	-1,3241513E+002	-7,2195016E-002
31/08/2025 11:03:41.8519	-1,3241513E+002	-7,2397552E-002
31/08/2025 11:03:45.2519	-1,3241513E+002	-7,2478808E-002
31/08/2025 11:03:48.6519	-1,3235785E+002	-7,2601765E-002
31/08/2025 11:03:52.0519	-1,3240878E+002	-7,2762512E-002
31/08/2025 11:03:55.4519	-1,3240242E+002	-7,2875045E-002
31/08/2025 11:03:58.8519	-1,3242149E+002	-7,2984718E-002
31/08/2025 11:04:02.2519	-1,3241513E+002	-7,3136792E-002
31/08/2025 11:04:05.6519	-1,3239604E+002	-7,3325075E-002
31/08/2025 11:04:09.0519	-1,3240878E+002	-7,3464163E-002
31/08/2025 11:04:12.4519	-1,3239604E+002	-7,3581740E-002
31/08/2025 11:04:15.8519	-1,3238332E+002	-7,3758990E-002
31/08/2025 11:04:19.2519	-1,3237695E+002	-7,3934399E-002
31/08/2025 11:04:22.6519	-1,3242787E+002	-7,4068636E-002
31/08/2025 11:04:26.0519	-1,3242149E+002	-7,4221618E-002
31/08/2025 11:04:29.4519	-1,3237061E+002	-7,4375257E-002
31/08/2025 11:04:32.8519	-1,3235150E+002	-7,4540704E-002
31/08/2025 11:04:36.2519	-1,3236423E+002	-7,4703515E-002
31/08/2025 11:04:39.6519	-1,3237061E+002	-7,4822620E-002
31/08/2025 11:04:43.0519	-1,3237695E+002	-7,4974619E-002
31/08/2025 11:04:46.4519	-1,3238332E+002	-7,5164050E-002
31/08/2025 11:04:49.8519	-1,3237695E+002	-7,5303666E-002
31/08/2025 11:04:53.2519	-1,3240878E+002	-7,5444773E-002
31/08/2025 11:04:56.6519	-1,3231332E+002	-7,5588480E-002
31/08/2025 11:05:00.0519	-1,3247878E+002	-7,5785592E-002
31/08/2025 11:05:03.4519	-1,3235150E+002	-7,5929753E-002
31/08/2025 11:05:06.8519	-1,3238968E+002	-7,6047756E-002
31/08/2025 11:05:10.2519	-1,3240878E+002	-7,6246507E-002
31/08/2025 11:05:13.6519	-1,3244696E+002	-7,6407641E-002
31/08/2025 11:05:17.0519	-1,3236423E+002	-7,6536067E-002
31/08/2025 11:05:20.3521	1,5902914E+002	5,0815113E-002
31/08/2025 11:05:23.7521	1,5908005E+002	6,5519877E-002
31/08/2025 11:05:27.1521	1,5901642E+002	7,2058499E-002
31/08/2025 11:05:30.5521	1,5911188E+002	7,5268529E-002
31/08/2025 11:05:33.9521	1,5903551E+002	7,6953329E-002
31/08/2025 11:05:37.3521	1,5905460E+002	7,7737644E-002
31/08/2025 11:05:40.7521	1,5906096E+002	7,7975787E-002
31/08/2025 11:05:44.1521	1,5906096E+002	7,8135461E-002
31/08/2025 11:05:47.5521	1,5904185E+002	7,8245774E-002
31/08/2025 11:05:50.9521	1,5908643E+002	7,8337267E-002
31/08/2025 11:05:54.3521	1,5905460E+002	7,8457668E-002
31/08/2025 11:05:57.7521	1,5902914E+002	7,8548931E-002
31/08/2025 11:06:01.1521	1,5903551E+002	7,8684464E-002
31/08/2025 11:06:04.5521	1,5904185E+002	7,8893445E-002
31/08/2025 11:06:07.9521	1,5901642E+002	7,9009041E-002
31/08/2025 11:06:11.3521	1,5902914E+002	7,9196870E-002
31/08/2025 11:06:14.7521	1,5906734E+002	7,9397462E-002
31/08/2025 11:06:18.1521	1,5911823E+002	7,9586394E-002
31/08/2025 11:06:21.5521	1,5909914E+002	7,9757489E-002
31/08/2025 11:06:24.9521	1,5906096E+002	7,9909943E-002
31/08/2025 11:06:28.3521	1,5908643E+002	8,0122873E-002
31/08/2025 11:06:31.7521	1,5911188E+002	8,0345534E-002
31/08/2025 11:06:35.1521	1,5909914E+002	8,0465525E-002
31/08/2025 11:06:38.5521	1,5906096E+002	8,0662325E-002
31/08/2025 11:06:41.9521	1,5910551E+002	8,0867492E-002
31/08/2025 11:06:45.3521	1,5904825E+002	8,1023917E-002
31/08/2025 11:06:48.7521	1,5907368E+002	8,1215262E-002
31/08/2025 11:06:52.1521	1,5904185E+002	8,1370696E-002
31/08/2025 11:06:55.5521	1,5910551E+002	8,1552148E-002
31/08/2025 11:06:58.9521	1,5906734E+002	8,1767403E-002
31/08/2025 11:07:02.3521	1,5906096E+002	8,1894949E-002
31/08/2025 11:07:05.7521	1,5909277E+002	8,2074180E-002
31/08/2025 11:07:09.1521	1,5912460E+002	8,2288638E-002
31/08/2025 11:07:12.5521	1,5906734E+002	8,2468905E-002
31/08/2025 11:07:15.9521	1,5909914E+002	8,2639270E-002
31/08/2025 11:07:19.2525	9,2506140E-002	1,7887026E-002
31/08/2025 11:07:22.6525	1,3068911E-001	6,9678123E-003
31/08/2025 11:07:26.0525	1,4978060E-001	2,4839765E-003
31/08/2025 11:07:29.4525	1,2432528E-001	4,1672683E-004
31/08/2025 11:07:32.8525	1,4978060E-001	-5,9842854E-004
31/08/2025 11:07:36.2525	9,2506140E-002	-1,0139643E-003
31/08/2025 11:07:39.6525	1,4978060E-001	-1,1265003E-003
31/08/2025 11:07:43.0525	4,7959324E-002	-1,1185549E-003
31/08/2025 11:07:46.4525	1,0523378E-001	-1,0750836E-003
31/08/2025 11:07:49.8525	6,0686987E-002	-1,0362345E-003
31/08/2025 11:07:53.2525	1,7523590E-001	-9,9184667E-004
31/08/2025 11:07:56.6525	1,4341676E-001	-9,6835382E-004
31/08/2025 11:08:00.0525	1,0523378E-001	-9,4917766E-004
31/08/2025 11:08:03.4525	9,8869957E-002	-9,3527295E-004
31/08/2025 11:08:06.8525	7,3414646E-002	-9,3378319E-004
31/08/2025 11:08:10.2525	1,7523590E-001	-9,2759484E-004
31/08/2025 11:08:13.6525	9,8869957E-002	-9,1678434E-004
31/08/2025 11:08:17.0525	7,9778478E-002	-9,2614326E-004
31/08/2025 11:08:20.4525	1,3068911E-001	-9,2331652E-004
31/08/2025 11:08:23.8525	1,5614443E-001	-9,2820602E-004
31/08/2025 11:08:27.2525	1,3705294E-001	-9,2854985E-004
31/08/2025 11:08:30.6525	1,2432528E-001	-9,2320185E-004
31/08/2025 11:08:34.0525	2,8867837E-002	-9,3068898E-004
31/08/2025 11:08:37.4525	9,8869957E-002	-9,3508197E-004
31/08/2025 11:08:40.8525	7,3414646E-002	-9,3294278E-004
31/08/2025 11:08:44.2525	1,0523378E-001	-9,3248440E-004
31/08/2025 11:08:47.6525	1,2432528E-001	-9,3393598E-004
31/08/2025 11:08:51.0525	1,4978060E-001	-9,3412696E-004
31/08/2025 11:08:54.4525	1,1796144E-001	-9,3408878E-004
31/08/2025 11:08:57.8525	1,0523378E-001	-9,2942844E-004
31/08/2025 11:09:01.2525	6,0686987E-002	-9,3584595E-004
31/08/2025 11:09:04.6525	8,6142294E-002	-9,3229336E-004
31/08/2025 11:09:08.0525	1,0523378E-001	-9,3091815E-004
31/08/2025 11:09:11.4525	5,4323155E-002	-9,2621968E-004
31/08/2025 11:09:14.8525	8,6142294E-002	-9,3275181E-004
31/08/2025 11:09:18.1527	-1,5887593E+002	-5,6237310E-002
31/08/2025 11:09:21.5527	-1,5886957E+002	-7,3340811E-002
31/08/2025 11:09:24.9527	-1,5886320E+002	-7,9672135E-002
31/08/2025 11:09:28.3527	-1,5893958E+002	-8,2670160E-002
31/08/2025 11:09:31.7527	-1,5884413E+002	-8,4185079E-002
31/08/2025 11:09:35.1527	-1,5893321E+002	-8,5027687E-002
31/08/2025 11:09:38.5527	-1,5886957E+002	-8,5406668E-002
31/08/2025 11:09:41.9527	-1,5885048E+002	-8,5639760E-002
31/08/2025 11:09:45.3527	-1,5886957E+002	-8,5791335E-002
31/08/2025 11:09:48.7527	-1,5893321E+002	-8,5902266E-002
31/08/2025 11:09:52.1527	-1,5890776E+002	-8,6043149E-002
31/08/2025 11:09:55.5527	-1,5888866E+002	-8,6237088E-002
31/08/2025 11:09:58.9527	-1,5886320E+002	-8,6385302E-002
31/08/2025 11:10:02.3527	-1,5887593E+002	-8,6526029E-002
31/08/2025 11:10:05.7527	-1,5886957E+002	-8,6708397E-002
31/08/2025 11:10:09.1527	-1,5892683E+002	-8,6946532E-002
31/08/2025 11:10:12.5527	-1,5886957E+002	-8,7105602E-002
31/08/2025 11:10:15.9527	-1,5883774E+002	-8,7248422E-002
31/08/2025 11:10:19.3527	-1,5885684E+002	-8,7486483E-002
31/08/2025 11:10:22.7527	-1,5891411E+002	-8,7683707E-002
31/08/2025 11:10:26.1527	-1,5883774E+002	-8,7843500E-002
31/08/2025 11:10:29.5527	-1,5888231E+002	-8,8054016E-002
31/08/2025 11:10:32.9527	-1,5893321E+002	-8,8227212E-002
31/08/2025 11:10:36.3527	-1,5890138E+002	-8,8428833E-002
31/08/2025 11:10:39.7527	-1,5886320E+002	-8,8618033E-002
31/08/2025 11:10:43.1527	-1,5891411E+002	-8,8800706E-002
31/08/2025 11:10:46.5527	-1,5888231E+002	-8,8963166E-002
31/08/2025 11:10:49.9527	-1,5885048E+002	-8,9216776E-002
31/08/2025 11:10:53.3527	-1,5888231E+002	-8,9364953E-002
31/08/2025 11:10:56.7527	-1,5893958E+002	-8,9530282E-002
31/08/2025 11:11:00.1527	-1,5883139E+002	-8,9720093E-002
31/08/2025 11:11:03.5527	-1,5890776E+002	-8,9935921E-002
31/08/2025 11:11:06.9527	-1,5884413E+002	-9,0095557E-002
31/08/2025 11:11:10.3527	-1,5882503E+002	-9,0267420E-002
31/08/2025 11:11:13.7527	-1,5883774E+002	-9,0483777E-002
31/08/2025 11:11:17.1527	-1,5887593E+002	-9,0704158E-002
31/08/2025 11:11:20.4529	1,8561086E+002	6,0637236E-002
31/08/2025 11:11:23.8529	1,8567448E+002	7,7597797E-002
31/08/2025 11:11:27.2529	1,8561086E+002	8,5218772E-002
31/08/2025 11:11:30.6529	1,8559813E+002	8,9001879E-002
31/08/2025 11:11:34.0529	1,8563631E+002	9,0951353E-002
31/08/2025 11:11:37.4529	1,8559177E+002	9,1885075E-002
31/08/2025 11:11:40.8529	1,8566812E+002	9,2245601E-002
31/08/2025 11:11:44.2529	1,8565540E+002	9,2358366E-002
31/08/2025 11:11:47.6529	1,8564267E+002	9,2508912E-002
31/08/2025 11:11:51.0529	1,8562994E+002	9,2651322E-002
31/08/2025 11:11:54.4529	1,8568723E+002	9,2763171E-002
31/08/2025 11:11:57.8529	1,8558540E+002	9,2912413E-002
31/08/2025 11:12:01.2529	1,8560449E+002	9,3073428E-002
31/08/2025 11:12:04.6529	1,8559813E+002	9,3284898E-002
31/08/2025 11:12:08.0529	1,8558540E+002	9,3488693E-002
31/08/2025 11:12:11.4529	1,8561722E+002	9,3662001E-002
31/08/2025 11:12:14.8529	1,8564267E+002	9,3862854E-002
31/08/2025 11:12:18.2529	1,8566177E+002	9,4122499E-002
31/08/2025 11:12:21.6529	1,8566812E+002	9,4322860E-002
31/08/2025 11:12:25.0529	1,8564267E+002	9,4509616E-002
31/08/2025 11:12:28.4529	1,8563631E+002	9,4724834E-002
31/08/2025 11:12:31.8529	1,8563631E+002	9,4991617E-002
31/08/2025 11:12:35.2529	1,8565540E+002	9,5206909E-002
31/08/2025 11:12:38.6529	1,8565540E+002	9,5382556E-002
31/08/2025 11:12:42.0529	1,8562360E+002	9,5620766E-002
31/08/2025 11:12:45.4529	1,8561086E+002	9,5861845E-002
31/08/2025 11:12:48.8529	1,8566177E+002	9,6038595E-002
31/08/2025 11:12:52.2529	1,8558540E+002	9,6255839E-002
31/08/2025 11:12:55.6529	1,8561722E+002	9,6471131E-002
31/08/2025 11:12:59.0529	1,8565540E+002	9,6692346E-002
31/08/2025 11:13:02.4529	1,8564905E+002	9,6921161E-002
31/08/2025 11:13:05.8529	1,8565540E+002	9,7100087E-002
31/08/2025 11:13:09.2529	1,8566177E+002	9,7305223E-002
31/08/2025 11:13:12.6529	1,8554723E+002	9,7587556E-002
31/08/2025 11:13:16.0529	1,8563631E+002	9,7762242E-002
31/08/2025 11:13:19.3533	7,9778478E-002	2,1430386E-002
31/08/2025 11:13:22.7533	5,4323155E-002	9,0317000E-003
31/08/2025 11:13:26.1533	1,7523590E-001	3,9178766E-003
31/08/2025 11:13:29.5533	9,2506140E-002	1,5566041E-003
31/08/2025 11:13:32.9533	9,8869957E-002	3,8899388E-004
31/08/2025 11:13:36.3533	9,2506140E-002	-8,1358259E-005
31/08/2025 11:13:39.7533	1,4341676E-001	-2,0180173E-004
31/08/2025 11:13:43.1533	4,1595493E-002	-1,9011262E-004
31/08/2025 11:13:46.5533	1,6887209E-001	-1,4056770E-004
31/08/2025 11:13:49.9533	7,3414646E-002	-8,5827618E-005
31/08/2025 11:13:53.3533	9,2506140E-002	-4,2853026E-005
31/08/2025 11:13:56.7533	1,1796144E-001	-1,4126895E-005
31/08/2025 11:14:00.1533	6,7050815E-002	7,4559007E-006
31/08/2025 11:14:03.5533	1,1796144E-001	2,7014114E-005
31/08/2025 11:14:06.9533	9,2506140E-002	3,6640424E-005
31/08/2025 11:14:10.3533	1,2432528E-001	3,7862810E-005
31/08/2025 11:14:13.7533	1,2432528E-001	4,3821954E-005
31/08/2025 11:14:17.1533	1,4978060E-001	4,1109783E-005
31/08/2025 11:14:20.5533	8,6142294E-002	3,8588605E-005
31/08/2025 11:14:23.9533	1,2432528E-001	3,5494431E-005
31/08/2025 11:14:27.3533	1,5614443E-001	3,9085196E-005
31/08/2025 11:14:30.7533	1,2432528E-001	3,3890050E-005
31/08/2025 11:14:34.1533	1,4978060E-001	3,0986877E-005
31/08/2025 11:14:37.5533	1,1796144E-001	3,4310244E-005
31/08/2025 11:14:40.9533	1,3068911E-001	2,7625310E-005
31/08/2025 11:14:44.3533	7,3414646E-002	3,0375682E-005
31/08/2025 11:14:47.7533	9,2506140E-002	2,7319711E-005
31/08/2025 11:14:51.1533	9,2506140E-002	3,0108286E-005
31/08/2025 11:14:54.5533	1,8796356E-001	3,3317054E-005
31/08/2025 11:14:57.9533	9,8869957E-002	2,1589765E-005
31/08/2025 11:15:01.3533	1,5614443E-001	2,4989535E-005
31/08/2025 11:15:04.7533	6,7050815E-002	3,4997840E-005
31/08/2025 11:15:08.1533	1,5614443E-001	2,9306093E-005
31/08/2025 11:15:11.5533	9,2506140E-002	2,8274702E-005
31/08/2025 11:15:14.9533	8,6142294E-002	2,7396110E-005
31/08/2025 11:15:18.2535	-1,8527945E+002	-6,5656386E-002
31/08/2025 11:15:21.6535	-1,8543217E+002	-8,4694132E-002
31/08/2025 11:15:25.0535	-1,8534309E+002	-9,1892816E-002
31/08/2025 11:15:28.4535	-1,8538129E+002	-9,5397249E-002
31/08/2025 11:15:31.8535	-1,8532401E+002	-9,7253636E-002
31/08/2025 11:15:35.2535	-1,8535582E+002	-9,8146550E-002
31/08/2025 11:15:38.6535	-1,8541948E+002	-9,8657928E-002
31/08/2025 11:15:42.0535	-1,8533037E+002	-9,8906226E-002
31/08/2025 11:15:45.4535	-1,8538765E+002	-9,9104524E-002
31/08/2025 11:15:48.8535	-1,8534946E+002	-9,9270694E-002
31/08/2025 11:15:52.2535	-1,8524765E+002	-9,9412762E-002
31/08/2025 11:15:55.6535	-1,8527310E+002	-9,9617042E-002
31/08/2025 11:15:59.0535	-1,8536220E+002	-9,9832684E-002
31/08/2025 11:16:02.4535	-1,8533673E+002	-9,9999122E-002
31/08/2025 11:16:05.8535	-1,8533673E+002	-1,0021155E-001
31/08/2025 11:16:09.2535	-1,8534309E+002	-1,0043135E-001
31/08/2025 11:16:12.6535	-1,8535582E+002	-1,0069386E-001
31/08/2025 11:16:16.0535	-1,8536855E+002	-1,0088077E-001
31/08/2025 11:16:19.4535	-1,8535582E+002	-1,0107295E-001
31/08/2025 11:16:22.8535	-1,8540674E+002	-1,0135510E-001
31/08/2025 11:16:26.2535	-1,8534946E+002	-1,0158888E-001
31/08/2025 11:16:29.6535	-1,8528583E+002	-1,0174977E-001
31/08/2025 11:16:33.0535	-1,8539400E+002	-1,0202190E-001
31/08/2025 11:16:36.4535	-1,8531128E+002	-1,0224518E-001
31/08/2025 11:16:39.8535	-1,8534946E+002	-1,0245658E-001
31/08/2025 11:16:43.2535	-1,8534309E+002	-1,0268058E-001
31/08/2025 11:16:46.6535	-1,8536855E+002	-1,0290057E-001
31/08/2025 11:16:50.0535	-1,8539400E+002	-1,0314627E-001
31/08/2025 11:16:53.4535	-1,8540038E+002	-1,0339667E-001
31/08/2025 11:16:56.8535	-1,8534309E+002	-1,0358920E-001
31/08/2025 11:17:00.2535	-1,8534946E+002	-1,0382179E-001
31/08/2025 11:17:03.6535	-1,8532401E+002	-1,0404760E-001
31/08/2025 11:17:07.0535	-1,8534946E+002	-1,0431029E-001
31/08/2025 11:17:10.4535	-1,8529218E+002	-1,0448593E-001
31/08/2025 11:17:13.8535	-1,8534309E+002	-1,0469993E-001
31/08/2025 11:17:17.2535	-1,8536220E+002	-1,0498349E-001
31/08/2025 11:17:20.5537	2,1214803E+002	7,0540108E-002
31/08/2025 11:17:23.9537	2,1216711E+002	8,9637481E-002
31/08/2025 11:17:27.3537	2,1209712E+002	9,8393790E-002
31/08/2025 11:17:30.7537	2,1211621E+002	1,0271872E-001
31/08/2025 11:17:34.1537	2,1216711E+002	1,0501215E-001
31/08/2025 11:17:37.5537	2,1215439E+002	1,0603036E-001
31/08/2025 11:17:40.9537	2,1216711E+002	1,0649759E-001
31/08/2025 11:17:44.3537	2,1213531E+002	1,0669992E-001
31/08/2025 11:17:47.7537	2,1210985E+002	1,0677231E-001
31/08/2025 11:17:51.1537	2,1214803E+002	1,0695578E-001
31/08/2025 11:17:54.5537	2,1219894E+002	1,0713662E-001
31/08/2025 11:17:57.9537	2,1208440E+002	1,0724740E-001
31/08/2025 11:18:01.3537	2,1215439E+002	1,0747706E-001
31/08/2025 11:18:04.7537	2,1208440E+002	1,0767401E-001
31/08/2025 11:18:08.1537	2,1212894E+002	1,0793255E-001
31/08/2025 11:18:11.5537	2,1210985E+002	1,0820166E-001
31/08/2025 11:18:14.9537	2,1213531E+002	1,0839740E-001
31/08/2025 11:18:18.3537	2,1216711E+002	1,0866331E-001
31/08/2025 11:18:21.7537	2,1217349E+002	1,0896195E-001
31/08/2025 11:18:25.1537	2,1217349E+002	1,0916602E-001
31/08/2025 11:18:28.5537	2,1210349E+002	1,0941428E-001
31/08/2025 11:18:31.9537	2,1210985E+002	1,0965173E-001
31/08/2025 11:18:35.3537	2,1215439E+002	1,0995988E-001
31/08/2025 11:18:38.7537	2,1213531E+002	1,1018064E-001
31/08/2025 11:18:42.1537	2,1210985E+002	1,1037507E-001
31/08/2025 11:18:45.5537	2,1219894E+002	1,1068801E-001
31/08/2025 11:18:48.9537	2,1215439E+002	1,1096243E-001
31/08/2025 11:18:52.3537	2,1215439E+002	1,1113723E-001
31/08/2025 11:18:55.7537	2,1218620E+002	1,1142033E-001
31/08/2025 11:18:59.1537	2,1210349E+002	1,1166637E-001
31/08/2025 11:19:02.5537	2,1212257E+002	1,1196605E-001
31/08/2025 11:19:05.9537	2,1210985E+002	1,1221637E-001
31/08/2025 11:19:09.3537	2,1219258E+002	1,1242571E-001
31/08/2025 11:19:12.7537	2,1214166E+002	1,1268802E-001
31/08/2025 11:19:16.1537	2,1213531E+002	1,1297979E-001
31/08/2025 11:19:19.4541	1,2432528E-001	2,4850590E-002
31/08/2025 11:19:22.8541	1,2432528E-001	1,1073967E-002
31/08/2025 11:19:26.2541	1,6250826E-001	5,3419974E-003
31/08/2025 11:19:29.6541	2,1341887E-001	2,6923937E-003
31/08/2025 11:19:33.0541	1,6250826E-001	1,3884873E-003
31/08/2025 11:19:36.4541	1,5614443E-001	8,5438008E-004
31/08/2025 11:19:39.8541	9,2506140E-002	7,2060496E-004
31/08/2025 11:19:43.2541	1,2432528E-001	7,2984921E-004
31/08/2025 11:19:46.6541	1,5614443E-001	7,8665209E-004
31/08/2025 11:19:50.0541	1,0523378E-001	8,4597612E-004
31/08/2025 11:19:53.4541	3,5231672E-002	8,9754566E-004
31/08/2025 11:19:56.8541	1,1159762E-001	9,3490491E-004
31/08/2025 11:20:00.2541	6,0686987E-002	9,5984928E-004
31/08/2025 11:20:03.6541	6,7050815E-002	9,7489997E-004
31/08/2025 11:20:07.0541	7,9778478E-002	9,8288362E-004
31/08/2025 11:20:10.4541	1,1159762E-001	9,8949217E-004
31/08/2025 11:20:13.8541	7,9778478E-002	9,8983594E-004
31/08/2025 11:20:17.2541	9,2506140E-002	9,9048531E-004
31/08/2025 11:20:20.6541	1,2432528E-001	9,8513742E-004
31/08/2025 11:20:24.0541	1,3068911E-001	9,8475534E-004
31/08/2025 11:20:27.4541	7,3414646E-002	9,9629164E-004
31/08/2025 11:20:30.8541	1,1159762E-001	9,8353298E-004
31/08/2025 11:20:34.2541	1,1796144E-001	9,9178415E-004
31/08/2025 11:20:37.6541	1,9432738E-001	9,8674174E-004
31/08/2025 11:20:41.0541	1,3068911E-001	9,8765863E-004
31/08/2025 11:20:44.4541	1,6250826E-001	9,9228078E-004
31/08/2025 11:20:47.8541	1,4978060E-001	9,8399143E-004
31/08/2025 11:20:51.2541	9,8869957E-002	9,8353298E-004
31/08/2025 11:20:54.6541	9,8869957E-002	9,8326558E-004
31/08/2025 11:20:58.0541	9,2506140E-002	9,8571042E-004
31/08/2025 11:21:01.4541	1,4341676E-001	9,8819344E-004
31/08/2025 11:21:04.8541	2,1978271E-001	9,8593964E-004
31/08/2025 11:21:08.2541	2,1341887E-001	9,8043890E-004
31/08/2025 11:21:11.6541	1,7523590E-001	9,8582497E-004
31/08/2025 11:21:15.0541	1,6250826E-001	9,8475546E-004
31/08/2025 11:21:18.3543	-2,1180389E+002	-7,5196095E-002
31/08/2025 11:21:21.7543	-2,1185481E+002	-9,6083045E-002
31/08/2025 11:21:25.1543	-2,1181664E+002	-1,0424425E-001
31/08/2025 11:21:28.5543	-2,1184209E+002	-1,0817526E-001
31/08/2025 11:21:31.9543	-2,1184209E+002	-1,1033017E-001
31/08/2025 11:21:35.3543	-2,1179755E+002	-1,1146283E-001
31/08/2025 11:21:38.7543	-2,1186754E+002	-1,1190878E-001
31/08/2025 11:21:42.1543	-2,1184209E+002	-1,1226358E-001
31/08/2025 11:21:45.5543	-2,1185481E+002	-1,1249663E-001
31/08/2025 11:21:48.9543	-2,1181027E+002	-1,1265035E-001
31/08/2025 11:21:52.3543	-2,1179755E+002	-1,1288160E-001
31/08/2025 11:21:55.7543	-2,1182300E+002	-1,1304866E-001
31/08/2025 11:21:59.1543	-2,1172754E+002	-1,1328267E-001
31/08/2025 11:22:02.5543	-2,1179755E+002	-1,1359028E-001
31/08/2025 11:22:05.9543	-2,1179117E+002	-1,1374782E-001
31/08/2025 11:22:09.3543	-2,1182935E+002	-1,1401945E-001
31/08/2025 11:22:12.7543	-2,1177206E+002	-1,1431050E-001
31/08/2025 11:22:16.1543	-2,1179117E+002	-1,1456888E-001
31/08/2025 11:22:19.5543	-2,1179117E+002	-1,1479682E-001
31/08/2025 11:22:22.9543	-2,1184845E+002	-1,1502770E-001
31/08/2025 11:22:26.3543	-2,1180389E+002	-1,1533879E-001
31/08/2025 11:22:29.7543	-2,1180389E+002	-1,1566448E-001
31/08/2025 11:22:33.1543	-2,1184845E+002	-1,1583119E-001
31/08/2025 11:22:36.5543	-2,1177206E+002	-1,1616173E-001
31/08/2025 11:22:39.9543	-2,1179755E+002	-1,1642294E-001
31/08/2025 11:22:43.3543	-2,1182300E+002	-1,1666318E-001
31/08/2025 11:22:46.7543	-2,1182935E+002	-1,1693890E-001
31/08/2025 11:22:50.1543	-2,1185481E+002	-1,1717658E-001
31/08/2025 11:22:53.5543	-2,1179755E+002	-1,1745506E-001
31/08/2025 11:22:56.9543	-2,1181027E+002	-1,1775129E-001
31/08/2025 11:23:00.3543	-2,1176572E+002	-1,1794738E-001
31/08/2025 11:23:03.7543	-2,1183574E+002	-1,1822955E-001
31/08/2025 11:23:07.1543	-2,1180389E+002	-1,1852678E-001
31/08/2025 11:23:10.5543	-2,1181027E+002	-1,1879594E-001
31/08/2025 11:23:13.9543	-2,1181027E+002	-1,1905000E-001
31/08/2025 11:23:17.3543	-2,1173389E+002	-1,1928379E-001
31/08/2025 11:23:20.6545	2,3860246E+002	8,0649912E-002
31/08/2025 11:23:24.0545	2,3857701E+002	1,0172667E-001
31/08/2025 11:23:27.4545	2,3859610E+002	1,1145872E-001
31/08/2025 11:23:30.8545	2,3855156E+002	1,1649431E-001
31/08/2025 11:23:34.2545	2,3851337E+002	1,1907619E-001
31/08/2025 11:23:37.6545	2,3854518E+002	1,2025476E-001
31/08/2025 11:23:41.0545	2,3858337E+002	1,2076557E-001
31/08/2025 11:23:44.4545	2,3865974E+002	1,2105779E-001
31/08/2025 11:23:47.8545	2,3857063E+002	1,2121510E-001
31/08/2025 11:23:51.2545	2,3859610E+002	1,2130594E-001
31/08/2025 11:23:54.6545	2,3861520E+002	1,2150458E-001
31/08/2025 11:23:58.0545	2,3864066E+002	1,2176884E-001
31/08/2025 11:24:01.4545	2,3859610E+002	1,2193646E-001
31/08/2025 11:24:04.8545	2,3857063E+002	1,2219813E-001
31/08/2025 11:24:08.2545	2,3858337E+002	1,2246461E-001
31/08/2025 11:24:11.6545	2,3860883E+002	1,2276015E-001
31/08/2025 11:24:15.0545	2,3853246E+002	1,2307493E-001
31/08/2025 11:24:18.4545	2,3854518E+002	1,2329575E-001
31/08/2025 11:24:21.8545	2,3851337E+002	1,2358053E-001
31/08/2025 11:24:25.2545	2,3858337E+002	1,2391673E-001
31/08/2025 11:24:28.6545	2,3857701E+002	1,2417824E-001
31/08/2025 11:24:32.0545	2,3858974E+002	1,2445160E-001
31/08/2025 11:24:35.4545	2,3862155E+002	1,2476201E-001
31/08/2025 11:24:38.8545	2,3853883E+002	1,2508915E-001
31/08/2025 11:24:42.2545	2,3859610E+002	1,2536958E-001
31/08/2025 11:24:45.6545	2,3869156E+002	1,2561573E-001
31/08/2025 11:24:49.0545	2,3859610E+002	1,2594052E-001
31/08/2025 11:24:52.4545	2,3862791E+002	1,2628007E-001
31/08/2025 11:24:55.8545	2,3853246E+002	1,2652795E-001
31/08/2025 11:24:59.2545	2,3862155E+002	1,2682822E-001
31/08/2025 11:25:02.6545	2,3869792E+002	1,2711832E-001
31/08/2025 11:25:06.0545	2,3857063E+002	1,2742765E-001
31/08/2025 11:25:09.4545	2,3858974E+002	1,2774406E-001
31/08/2025 11:25:12.8545	2,3861520E+002	1,2797853E-001
31/08/2025 11:25:16.2545	2,3853883E+002	1,2827532E-001
31/08/2025 11:25:19.5549	1,2432528E-001	2,8130336E-002
31/08/2025 11:25:22.9549	1,2432528E-001	1,3064665E-002
31/08/2025 11:25:26.3549	1,1159762E-001	6,7518693E-003
31/08/2025 11:25:29.7549	1,2432528E-001	3,8051109E-003
31/08/2025 11:25:33.1549	1,0523378E-001	2,3791951E-003
31/08/2025 11:25:36.5549	1,2432528E-001	1,7934418E-003
31/08/2025 11:25:39.9549	1,2432528E-001	1,6509189E-003
31/08/2025 11:25:43.3549	1,5614443E-001	1,6671920E-003
31/08/2025 11:25:46.7549	1,1159762E-001	1,7325133E-003
31/08/2025 11:25:50.1549	1,0523378E-001	1,8000122E-003
31/08/2025 11:25:53.5549	1,1796144E-001	1,8522692E-003
31/08/2025 11:25:56.9549	1,3068911E-001	1,8931428E-003
31/08/2025 11:26:00.3549	1,3068911E-001	1,9212960E-003
31/08/2025 11:26:03.7549	1,2432528E-001	1,9375690E-003
31/08/2025 11:26:07.1549	9,2506140E-002	1,9507097E-003
31/08/2025 11:26:10.5549	1,1796144E-001	1,9475392E-003
31/08/2025 11:26:13.9549	6,0686987E-002	1,9534600E-003
31/08/2025 11:26:17.3549	1,7523590E-001	1,9505569E-003
31/08/2025 11:26:20.7549	1,1159762E-001	1,9519703E-003
31/08/2025 11:26:24.1549	1,1159762E-001	1,9523524E-003
31/08/2025 11:26:27.5549	1,1796144E-001	1,9478066E-003
31/08/2025 11:26:30.9549	1,8796356E-001	1,9454763E-003
31/08/2025 11:26:34.3549	1,3068911E-001	1,9468134E-003
31/08/2025 11:26:37.7549	9,8869957E-002	1,9487233E-003
31/08/2025 11:26:41.1549	9,8869957E-002	1,9468898E-003
31/08/2025 11:26:44.5549	7,3414646E-002	1,9408542E-003
31/08/2025 11:26:47.9549	1,2432528E-001	1,9409688E-003
31/08/2025 11:26:51.3549	6,7050815E-002	1,9436047E-003
31/08/2025 11:26:54.7549	8,6142294E-002	1,9438338E-003
31/08/2025 11:26:58.1549	4,7959324E-002	1,9501749E-003
31/08/2025 11:27:01.5549	1,5614443E-001	1,9538039E-003
31/08/2025 11:27:04.9549	9,2506140E-002	1,9448651E-003
31/08/2025 11:27:08.3549	1,1159762E-001	1,9486470E-003
31/08/2025 11:27:11.7549	1,8159975E-001	1,9467369E-003
31/08/2025 11:27:15.1549	1,3705294E-001	1,9437573E-003
31/08/2025 11:27:18.4551	-2,3832198E+002	-8,4766597E-002
31/08/2025 11:27:21.8551	-2,3833472E+002	-1,0744094E-001
31/08/2025 11:27:25.2551	-2,3836017E+002	-1,1660534E-001
31/08/2025 11:27:28.6551	-2,3832834E+002	-1,2107360E-001
31/08/2025 11:27:32.0551	-2,3827744E+002	-1,2337482E-001
31/08/2025 11:27:35.4551	-2,3835381E+002	-1,2467811E-001
31/08/2025 11:27:38.8551	-2,3834106E+002	-1,2532952E-001
31/08/2025 11:27:42.2551	-2,3834106E+002	-1,2560067E-001
31/08/2025 11:27:45.6551	-2,3831561E+002	-1,2587449E-001
31/08/2025 11:27:49.0551	-2,3830923E+002	-1,2608622E-001
31/08/2025 11:27:52.4551	-2,3833472E+002	-1,2632489E-001
31/08/2025 11:27:55.8551	-2,3832198E+002	-1,2660696E-001
31/08/2025 11:27:59.2551	-2,3834106E+002	-1,2679452E-001
31/08/2025 11:28:02.6551	-2,3829652E+002	-1,2707682E-001
31/08/2025 11:28:06.0551	-2,3831561E+002	-1,2743936E-001
31/08/2025 11:28:09.4551	-2,3835381E+002	-1,2766281E-001
31/08/2025 11:28:12.8551	-2,3832834E+002	-1,2796186E-001
31/08/2025 11:28:16.2551	-2,3837926E+002	-1,2828147E-001
31/08/2025 11:28:19.6551	-2,3835381E+002	-1,2861787E-001
31/08/2025 11:28:23.0551	-2,3827744E+002	-1,2892376E-001
31/08/2025 11:28:26.4551	-2,3831561E+002	-1,2915209E-001
31/08/2025 11:28:29.8551	-2,3837289E+002	-1,2950769E-001
31/08/2025 11:28:33.2551	-2,3827744E+002	-1,2985936E-001
31/08/2025 11:28:36.6551	-2,3835381E+002	-1,3007462E-001
31/08/2025 11:28:40.0551	-2,3833472E+002	-1,3040330E-001
31/08/2025 11:28:43.4551	-2,3832834E+002	-1,3068382E-001
31/08/2025 11:28:46.8551	-2,3831561E+002	-1,3099942E-001
31/08/2025 11:28:50.2551	-2,3833472E+002	-1,3133869E-001
31/08/2025 11:28:53.6551	-2,3836017E+002	-1,3158977E-001
31/08/2025 11:28:57.0551	-2,3834106E+002	-1,3189322E-001
31/08/2025 11:29:00.4551	-2,3829016E+002	-1,3229014E-001
31/08/2025 11:29:03.8551	-2,3832834E+002	-1,3254564E-001
31/08/2025 11:29:07.2551	-2,3828378E+002	-1,3283171E-001
31/08/2025 11:29:10.6551	-2,3827744E+002	-1,3314644E-001
31/08/2025 11:29:14.0551	-2,3833472E+002	-1,3350119E-001
31/08/2025 11:29:17.4551	-2,3832834E+002	-1,3382128E-001
31/08/2025 11:29:20.7553	2,6512689E+002	9,0793520E-002
31/08/2025 11:29:24.1553	2,6506961E+002	1,1397119E-001
31/08/2025 11:29:27.5553	2,6514597E+002	1,2474509E-001
31/08/2025 11:29:30.9553	2,6506961E+002	1,3032819E-001
31/08/2025 11:29:34.3553	2,6508234E+002	1,3328889E-001
31/08/2025 11:29:37.7553	2,6505054E+002	1,3469537E-001
31/08/2025 11:29:41.1553	2,6508234E+002	1,3524055E-001
31/08/2025 11:29:44.5553	2,6512054E+002	1,3547483E-001
31/08/2025 11:29:47.9553	2,6506326E+002	1,3572401E-001
31/08/2025 11:29:51.3553	2,6508871E+002	1,3594143E-001
31/08/2025 11:29:54.7553	2,6509509E+002	1,3603397E-001
31/08/2025 11:29:58.1553	2,6510147E+002	1,3630861E-001
31/08/2025 11:30:01.5553	2,6511420E+002	1,3658407E-001
31/08/2025 11:30:04.9553	2,6506326E+002	1,3688387E-001
31/08/2025 11:30:08.3553	2,6508871E+002	1,3718484E-001
31/08/2025 11:30:11.7553	2,6508234E+002	1,3745895E-001
31/08/2025 11:30:15.1553	2,6511420E+002	1,3780409E-001
31/08/2025 11:30:18.5553	2,6505054E+002	1,3818200E-001
31/08/2025 11:30:21.9553	2,6504419E+002	1,3848385E-001
31/08/2025 11:30:25.3553	2,6506326E+002	1,3883319E-001
31/08/2025 11:30:28.7553	2,6510147E+002	1,3917412E-001
31/08/2025 11:30:32.1553	2,6506961E+002	1,3956143E-001
31/08/2025 11:30:35.5553	2,6510147E+002	1,3984755E-001
31/08/2025 11:30:38.9553	2,6512689E+002	1,4011830E-001
31/08/2025 11:30:42.3553	2,6503146E+002	1,4052625E-001
31/08/2025 11:30:45.7553	2,6503784E+002	1,4089234E-001
31/08/2025 11:30:49.1553	2,6508234E+002	1,4113858E-001
31/08/2025 11:30:52.5553	2,6510147E+002	1,4153795E-001
31/08/2025 11:30:55.9553	2,6508871E+002	1,4189944E-001
31/08/2025 11:30:59.3553	2,6510782E+002	1,4223254E-001
31/08/2025 11:31:02.7553	2,6506961E+002	1,4258198E-001
31/08/2025 11:31:06.1553	2,6510782E+002	1,4287437E-001
31/08/2025 11:31:09.5553	2,6512054E+002	1,4325079E-001
31/08/2025 11:31:12.9553	2,6511420E+002	1,4363232E-001
31/08/2025 11:31:16.3553	2,6509509E+002	1,4392643E-001
31/08/2025 11:31:19.6557	7,9778478E-002	3,1352628E-002
31/08/2025 11:31:23.0557	1,2432528E-001	1,4990690E-002
31/08/2025 11:31:26.4557	1,1796144E-001	8,1484476E-003
31/08/2025 11:31:29.8557	1,3068911E-001	4,9316566E-003
31/08/2025 11:31:33.2557	1,1159762E-001	3,3577553E-003
31/08/2025 11:31:36.6557	1,7523590E-001	2,7310520E-003
31/08/2025 11:31:40.0557	1,0523378E-001	2,5807363E-003
31/08/2025 11:31:43.4557	1,4341676E-001	2,6035414E-003
31/08/2025 11:31:46.8557	6,7050815E-002	2,6716513E-003
31/08/2025 11:31:50.2557	1,2432528E-001	2,7430083E-003
31/08/2025 11:31:53.6557	4,1595493E-002	2,8097813E-003
31/08/2025 11:31:57.0557	1,1796144E-001	2,8527942E-003
31/08/2025 11:32:00.4557	1,1796144E-001	2,8886634E-003
31/08/2025 11:32:03.8557	1,5614443E-001	2,8998943E-003
31/08/2025 11:32:07.2557	1,6887209E-001	2,9158616E-003
31/08/2025 11:32:10.6557	1,1159762E-001	2,9205603E-003
31/08/2025 11:32:14.0557	1,3068911E-001	2,9231962E-003
31/08/2025 11:32:17.4557	9,2506140E-002	2,9220118E-003
31/08/2025 11:32:20.8557	9,8869957E-002	2,9212481E-003
31/08/2025 11:32:24.2557	1,1796144E-001	2,9127675E-003
31/08/2025 11:32:27.6557	7,3414646E-002	2,9141426E-003
31/08/2025 11:32:31.0557	4,7959324E-002	2,9149831E-003
31/08/2025 11:32:34.4557	1,4978060E-001	2,9123854E-003
31/08/2025 11:32:37.8557	1,1159762E-001	2,9150213E-003
31/08/2025 11:32:41.2557	8,6142294E-002	2,9076107E-003
31/08/2025 11:32:44.6557	2,0069122E-001	2,9097116E-003
31/08/2025 11:32:48.0557	2,0069122E-001	2,9139516E-003
31/08/2025 11:32:51.4557	1,7523590E-001	2,9098645E-003
31/08/2025 11:32:54.8557	1,3705294E-001	2,9094059E-003
31/08/2025 11:32:58.2557	1,1159762E-001	2,9113921E-003
31/08/2025 11:33:01.6557	9,2506140E-002	2,9080308E-003
31/08/2025 11:33:05.0557	1,4978060E-001	2,9140664E-003
31/08/2025 11:33:08.4557	1,3068911E-001	2,9109721E-003
31/08/2025 11:33:11.8557	1,1796144E-001	2,9125384E-003
31/08/2025 11:33:15.2557	1,2432528E-001	2,9079926E-003
31/08/2025 11:33:18.5559	-2,6483371E+002	-9,4558418E-002
31/08/2025 11:33:21.9559	-2,6475095E+002	-1,1884758E-001
31/08/2025 11:33:25.3559	-2,6478915E+002	-1,2889016E-001
31/08/2025 11:33:28.7559	-2,6475732E+002	-1,3391569E-001
31/08/2025 11:33:32.1559	-2,6482095E+002	-1,3661745E-001
31/08/2025 11:33:35.5559	-2,6478278E+002	-1,3794045E-001
31/08/2025 11:33:38.9559	-2,6477643E+002	-1,3869891E-001
31/08/2025 11:33:42.3559	-2,6479550E+002	-1,3910000E-001
31/08/2025 11:33:45.7559	-2,6482095E+002	-1,3935617E-001
31/08/2025 11:33:49.1559	-2,6477643E+002	-1,3961592E-001
31/08/2025 11:33:52.5559	-2,6477643E+002	-1,3986713E-001
31/08/2025 11:33:55.9559	-2,6477005E+002	-1,4019781E-001
31/08/2025 11:33:59.3559	-2,6478278E+002	-1,4051262E-001
31/08/2025 11:34:02.7559	-2,6485278E+002	-1,4079426E-001
31/08/2025 11:34:06.1559	-2,6482095E+002	-1,4110766E-001
31/08/2025 11:34:09.5559	-2,6484641E+002	-1,4149229E-001
31/08/2025 11:34:12.9559	-2,6478278E+002	-1,4182597E-001
31/08/2025 11:34:16.3559	-2,6476367E+002	-1,4212446E-001
31/08/2025 11:34:19.7559	-2,6478278E+002	-1,4244629E-001
31/08/2025 11:34:23.1559	-2,6477005E+002	-1,4286965E-001
31/08/2025 11:34:26.5559	-2,6473825E+002	-1,4319038E-001
31/08/2025 11:34:29.9559	-2,6476367E+002	-1,4347956E-001
31/08/2025 11:34:33.3559	-2,6474460E+002	-1,4390877E-001
31/08/2025 11:34:36.7559	-2,6475095E+002	-1,4427914E-001
31/08/2025 11:34:40.1559	-2,6478278E+002	-1,4458543E-001
31/08/2025 11:34:43.5559	-2,6480188E+002	-1,4494880E-001
31/08/2025 11:34:46.9559	-2,6478278E+002	-1,4528298E-001
31/08/2025 11:34:50.3559	-2,6476367E+002	-1,4567018E-001
31/08/2025 11:34:53.7559	-2,6478915E+002	-1,4604065E-001
31/08/2025 11:34:57.1559	-2,6486551E+002	-1,4633922E-001
31/08/2025 11:35:00.5559	-2,6475095E+002	-1,4670336E-001
31/08/2025 11:35:03.9559	-2,6480823E+002	-1,4709949E-001
31/08/2025 11:35:07.3559	-2,6476367E+002	-1,4742325E-001
31/08/2025 11:35:10.7559	-2,6483371E+002	-1,4775294E-001
31/08/2025 11:35:14.1559	-2,6477643E+002	-1,4807504E-001
31/08/2025 11:35:17.5559	-2,6474460E+002	-1,4853467E-001
31/08/2025 11:35:20.8561	2,9158771E+002	1,0112766E-001
31/08/2025 11:35:24.2561	2,9156860E+002	1,2619320E-001
31/08/2025 11:35:27.6561	2,9153043E+002	1,3817279E-001
31/08/2025 11:35:31.0561	2,9162585E+002	1,4428736E-001
31/08/2025 11:35:34.4561	2,9157498E+002	1,4760683E-001
31/08/2025 11:35:37.8561	2,9158136E+002	1,4919305E-001
31/08/2025 11:35:41.2561	2,9154950E+002	1,4988789E-001
31/08/2025 11:35:44.6561	2,9156223E+002	1,5019032E-001
31/08/2025 11:35:48.0561	2,9154315E+002	1,5035577E-001
31/08/2025 11:35:51.4561	2,9161951E+002	1,5060747E-001
31/08/2025 11:35:54.8561	2,9161951E+002	1,5090944E-001
31/08/2025 11:35:58.2561	2,9157498E+002	1,5105732E-001
31/08/2025 11:36:01.6561	2,9157498E+002	1,5138818E-001
31/08/2025 11:36:05.0561	2,9158136E+002	1,5173481E-001
31/08/2025 11:36:08.4561	2,9161316E+002	1,5208609E-001
31/08/2025 11:36:11.8561	2,9161316E+002	1,5244822E-001
31/08/2025 11:36:15.2561	2,9151135E+002	1,5276392E-001
31/08/2025 11:36:18.6561	2,9158771E+002	1,5314120E-001
31/08/2025 11:36:22.0561	2,9154950E+002	1,5360940E-001
31/08/2025 11:36:25.4561	2,9150497E+002	1,5389730E-001
31/08/2025 11:36:28.8561	2,9160043E+002	1,5427661E-001
31/08/2025 11:36:32.2561	2,9160043E+002	1,5470621E-001
31/08/2025 11:36:35.6561	2,9162585E+002	1,5513633E-001
31/08/2025 11:36:39.0561	2,9156860E+002	1,5550153E-001
31/08/2025 11:36:42.4561	2,9157498E+002	1,5583998E-001
31/08/2025 11:36:45.8561	2,9152408E+002	1,5627247E-001
31/08/2025 11:36:49.2561	2,9158136E+002	1,5670730E-001
31/08/2025 11:36:52.6561	2,9156860E+002	1,5701462E-001
31/08/2025 11:36:56.0561	2,9154950E+002	1,5741846E-001
31/08/2025 11:36:59.4561	2,9159409E+002	1,5786219E-001
31/08/2025 11:37:02.8561	2,9161951E+002	1,5822780E-001
31/08/2025 11:37:06.2561	2,9160043E+002	1,5862003E-001
31/08/2025 11:37:09.6561	2,9154315E+002	1,5899351E-001
31/08/2025 11:37:13.0561	2,9160043E+002	1,5939586E-001
31/08/2025 11:37:16.4561	2,9154315E+002	1,5983069E-001
31/08/2025 11:37:19.7565	1,0523378E-001	3,4428425E-002
31/08/2025 11:37:23.1565	1,1796144E-001	1,6900940E-002
31/08/2025 11:37:26.5565	1,3705294E-001	9,5080882E-003
31/08/2025 11:37:29.9565	1,4341676E-001	6,0507529E-003
31/08/2025 11:37:33.3565	9,8869957E-002	4,3517482E-003
31/08/2025 11:37:36.7565	1,4978060E-001	3,6659881E-003
31/08/2025 11:37:40.1565	1,7523590E-001	3,5058169E-003
31/08/2025 11:37:43.5565	5,4323155E-002	3,5266357E-003
31/08/2025 11:37:46.9565	1,4341676E-001	3,6044484E-003
31/08/2025 11:37:50.3565	1,1159762E-001	3,6897864E-003
31/08/2025 11:37:53.7565	4,1595493E-002	3,7431130E-003
31/08/2025 11:37:57.1565	6,7050815E-002	3,8069829E-003
31/08/2025 11:38:00.5565	1,3068911E-001	3,8349070E-003
31/08/2025 11:38:03.9565	1,7523590E-001	3,8513709E-003
31/08/2025 11:38:07.3565	1,5614443E-001	3,8732593E-003
31/08/2025 11:38:10.7565	7,9778478E-002	3,8682169E-003
31/08/2025 11:38:14.1565	9,2506140E-002	3,8759713E-003
31/08/2025 11:38:17.5565	6,7050815E-002	3,8752838E-003
31/08/2025 11:38:20.9565	1,0523378E-001	3,8729918E-003
31/08/2025 11:38:24.3565	1,4341676E-001	3,8729156E-003
31/08/2025 11:38:27.7565	1,3705294E-001	3,8721133E-003
31/08/2025 11:38:31.1565	1,7523590E-001	3,8708528E-003
31/08/2025 11:38:34.5565	6,7050815E-002	3,8714258E-003
31/08/2025 11:38:37.9565	1,4341676E-001	3,8625253E-003
31/08/2025 11:38:41.3565	1,3068911E-001	3,8738323E-003
31/08/2025 11:38:44.7565	8,6142294E-002	3,8658485E-003
31/08/2025 11:38:48.1565	1,0523378E-001	3,8686371E-003
31/08/2025 11:38:51.5565	1,3068911E-001	3,8711966E-003
31/08/2025 11:38:54.9565	7,9778478E-002	3,8686371E-003
31/08/2025 11:38:58.3565	6,7050815E-002	3,8696686E-003
31/08/2025 11:39:01.7565	1,5614443E-001	3,8703561E-003
31/08/2025 11:39:05.1565	3,5231672E-002	3,8694777E-003
31/08/2025 11:39:08.5565	4,1595493E-002	3,8719224E-003
31/08/2025 11:39:11.9565	1,1159762E-001	3,8702416E-003
31/08/2025 11:39:15.3565	1,3705294E-001	3,8624869E-003
31/08/2025 11:39:18.6567	-2,9123721E+002	-1,0452674E-001
31/08/2025 11:39:22.0567	-2,9136447E+002	-1,3040352E-001
31/08/2025 11:39:25.4567	-2,9137723E+002	-1,4140771E-001
31/08/2025 11:39:28.8567	-2,9129449E+002	-1,4685224E-001
31/08/2025 11:39:32.2567	-2,9135812E+002	-1,4995836E-001
31/08/2025 11:39:35.6567	-2,9128177E+002	-1,5154453E-001
31/08/2025 11:39:39.0567	-2,9131995E+002	-1,5222533E-001
31/08/2025 11:39:42.4567	-2,9130722E+002	-1,5276261E-001
31/08/2025 11:39:45.8567	-2,9132629E+002	-1,5311565E-001
31/08/2025 11:39:49.2567	-2,9134540E+002	-1,5334392E-001
31/08/2025 11:39:52.6567	-2,9128177E+002	-1,5369140E-001
31/08/2025 11:39:56.0567	-2,9135178E+002	-1,5396219E-001
31/08/2025 11:39:59.4567	-2,9128812E+002	-1,5431923E-001
31/08/2025 11:40:02.8567	-2,9131360E+002	-1,5475655E-001
31/08/2025 11:40:06.2567	-2,9132629E+002	-1,5500331E-001
31/08/2025 11:40:09.6567	-2,9130084E+002	-1,5537274E-001
31/08/2025 11:40:13.0567	-2,9136447E+002	-1,5582713E-001
31/08/2025 11:40:16.4567	-2,9131360E+002	-1,5619369E-001
31/08/2025 11:40:19.8567	-2,9134540E+002	-1,5656422E-001
31/08/2025 11:40:23.2567	-2,9130084E+002	-1,5693897E-001
31/08/2025 11:40:26.6567	-2,9131360E+002	-1,5741138E-001
31/08/2025 11:40:30.0567	-2,9124356E+002	-1,5782958E-001
31/08/2025 11:40:33.4567	-2,9128177E+002	-1,5815049E-001
31/08/2025 11:40:36.8567	-2,9128812E+002	-1,5859996E-001
31/08/2025 11:40:40.2567	-2,9128812E+002	-1,5902829E-001
31/08/2025 11:40:43.6567	-2,9135812E+002	-1,5937442E-001
31/08/2025 11:40:47.0567	-2,9130084E+002	-1,5977922E-001
31/08/2025 11:40:50.4567	-2,9136447E+002	-1,6015075E-001
31/08/2025 11:40:53.8567	-2,9135812E+002	-1,6058920E-001
31/08/2025 11:40:57.2567	-2,9137088E+002	-1,6100696E-001
31/08/2025 11:41:00.6567	-2,9133902E+002	-1,6132788E-001
31/08/2025 11:41:04.0567	-2,9132629E+002	-1,6174909E-001
31/08/2025 11:41:07.4567	-2,9141541E+002	-1,6219802E-001
31/08/2025 11:41:10.8567	-2,9132629E+002	-1,6263239E-001
31/08/2025 11:41:14.2567	-2,9140268E+002	-1,6299541E-001
31/08/2025 11:41:17.6567	-2,9133902E+002	-1,6336067E-001
31/08/2025 11:41:20.9569	3,1810577E+002	1,1174999E-001
31/08/2025 11:41:24.3569	3,1818851E+002	1,3859797E-001
31/08/2025 11:41:27.7569	3,1814395E+002	1,5155707E-001
31/08/2025 11:41:31.1569	3,1813760E+002	1,5853201E-001
31/08/2025 11:41:34.5569	3,1818216E+002	1,6215135E-001
31/08/2025 11:41:37.9569	3,1817581E+002	1,6388303E-001
31/08/2025 11:41:41.3569	3,1822031E+002	1,6465075E-001
31/08/2025 11:41:44.7569	3,1818851E+002	1,6513386E-001
31/08/2025 11:41:48.1569	3,1812488E+002	1,6534820E-001
31/08/2025 11:41:51.5569	3,1814395E+002	1,6549811E-001
31/08/2025 11:41:54.9569	3,1820123E+002	1,6584377E-001
31/08/2025 11:41:58.3569	3,1813126E+002	1,6617742E-001
31/08/2025 11:42:01.7569	3,1813760E+002	1,6642553E-001
31/08/2025 11:42:05.1569	3,1810577E+002	1,6688497E-001
31/08/2025 11:42:08.5569	3,1817581E+002	1,6721958E-001
31/08/2025 11:42:11.9569	3,1808035E+002	1,6768374E-001
31/08/2025 11:42:15.3569	3,1817581E+002	1,6815695E-001
31/08/2025 11:42:18.7569	3,1820123E+002	1,6848837E-001
31/08/2025 11:42:22.1569	3,1812488E+002	1,6894229E-001
31/08/2025 11:42:25.5569	3,1811853E+002	1,6949038E-001
31/08/2025 11:42:28.9569	3,1816940E+002	1,6980359E-001
31/08/2025 11:42:32.3569	3,1814395E+002	1,7024785E-001
31/08/2025 11:42:35.7569	3,1820123E+002	1,7070727E-001
31/08/2025 11:42:39.1569	3,1818216E+002	1,7120814E-001
31/08/2025 11:42:42.5569	3,1818216E+002	1,7162539E-001
31/08/2025 11:42:45.9569	3,1813126E+002	1,7201045E-001
31/08/2025 11:42:49.3569	3,1813760E+002	1,7249285E-001
31/08/2025 11:42:52.7569	3,1816302E+002	1,7299229E-001
31/08/2025 11:42:56.1569	3,1813126E+002	1,7338063E-001
31/08/2025 11:42:59.5569	3,1815671E+002	1,7384346E-001
31/08/2025 11:43:02.9569	3,1809943E+002	1,7424414E-001
31/08/2025 11:43:06.3569	3,1819489E+002	1,7474346E-001
31/08/2025 11:43:09.7569	3,1823941E+002	1,7520329E-001
31/08/2025 11:43:13.1569	3,1809943E+002	1,7557806E-001
31/08/2025 11:43:16.5569	3,1813126E+002	1,7602435E-001
31/08/2025 11:43:19.8573	2,2614653E-001	3,7378695E-002
31/08/2025 11:43:23.2573	1,1796144E-001	1,8747587E-002
31/08/2025 11:43:26.6573	1,6887209E-001	1,0877125E-002
31/08/2025 11:43:30.0573	9,2506140E-002	7,1495278E-003
31/08/2025 11:43:33.4573	1,0523378E-001	5,3212927E-003
31/08/2025 11:43:36.8573	1,1159762E-001	4,5990143E-003
31/08/2025 11:43:40.2573	1,1159762E-001	4,4310885E-003
31/08/2025 11:43:43.6573	1,3068911E-001	4,4576372E-003
31/08/2025 11:43:47.0573	1,4341676E-001	4,5428993E-003
31/08/2025 11:43:50.4573	1,6250826E-001	4,6377108E-003
31/08/2025 11:43:53.8573	5,4323155E-002	4,7107865E-003
31/08/2025 11:43:57.2573	6,0686987E-002	4,7600637E-003
31/08/2025 11:44:00.6573	1,1159762E-001	4,7964300E-003
31/08/2025 11:44:04.0573	1,0523378E-001	4,8209159E-003
31/08/2025 11:44:07.4573	9,2506140E-002	4,8306184E-003
31/08/2025 11:44:10.8573	1,3068911E-001	4,8422311E-003
31/08/2025 11:44:14.2573	1,4341676E-001	4,8426897E-003
31/08/2025 11:44:17.6573	9,2506140E-002	4,8387554E-003
31/08/2025 11:44:21.0573	1,9432738E-001	4,8446381E-003
31/08/2025 11:44:24.4573	1,4978060E-001	4,8384494E-003
31/08/2025 11:44:27.8573	7,3414646E-002	4,8448290E-003
31/08/2025 11:44:31.2573	9,8869957E-002	4,8357374E-003
31/08/2025 11:44:34.6573	9,2506140E-002	4,8295869E-003
31/08/2025 11:44:38.0573	8,6142294E-002	4,8266840E-003
31/08/2025 11:44:41.4573	1,2432528E-001	4,8353551E-003
31/08/2025 11:44:44.8573	1,2432528E-001	4,8355847E-003
31/08/2025 11:44:48.2573	9,2506140E-002	4,8358901E-003
31/08/2025 11:44:51.6573	1,7523590E-001	4,8345150E-003
31/08/2025 11:44:55.0573	8,6142294E-002	4,8311916E-003
31/08/2025 11:44:58.4573	9,2506140E-002	4,8345914E-003
31/08/2025 11:45:01.8573	6,0686987E-002	4,8345150E-003
31/08/2025 11:45:05.2573	1,6250826E-001	4,8326431E-003
31/08/2025 11:45:08.6573	1,1159762E-001	4,8379912E-003
31/08/2025 11:45:12.0573	1,9432738E-001	4,8334072E-003
31/08/2025 11:45:15.4573	1,3068911E-001	4,8285173E-003
31/08/2025 11:45:18.7575	-3,1787619E+002	-1,1445883E-001
31/08/2025 11:45:22.1575	-3,1789529E+002	-1,4197919E-001
31/08/2025 11:45:25.5575	-3,1790802E+002	-1,5399377E-001
31/08/2025 11:45:28.9575	-3,1786346E+002	-1,6000472E-001
31/08/2025 11:45:32.3575	-3,1788254E+002	-1,6322002E-001
31/08/2025 11:45:35.7575	-3,1785074E+002	-1,6504225E-001
31/08/2025 11:45:39.1575	-3,1786346E+002	-1,6603930E-001
31/08/2025 11:45:42.5575	-3,1783163E+002	-1,6639239E-001
31/08/2025 11:45:45.9575	-3,1794620E+002	-1,6683316E-001
31/08/2025 11:45:49.3575	-3,1793347E+002	-1,6717128E-001
31/08/2025 11:45:52.7575	-3,1785712E+002	-1,6750309E-001
31/08/2025 11:45:56.1575	-3,1786346E+002	-1,6790436E-001
31/08/2025 11:45:59.5575	-3,1778708E+002	-1,6822439E-001
31/08/2025 11:46:02.9575	-3,1790802E+002	-1,6861525E-001
31/08/2025 11:46:06.3575	-3,1781256E+002	-1,6914925E-001
31/08/2025 11:46:09.7575	-3,1783801E+002	-1,6952211E-001
31/08/2025 11:46:13.1575	-3,1784433E+002	-1,6991210E-001
31/08/2025 11:46:16.5575	-3,1791440E+002	-1,7037249E-001
31/08/2025 11:46:19.9575	-3,1781894E+002	-1,7090605E-001
31/08/2025 11:46:23.3575	-3,1783801E+002	-1,7129043E-001
31/08/2025 11:46:26.7575	-3,1785074E+002	-1,7167561E-001
31/08/2025 11:46:30.1575	-3,1782526E+002	-1,7220066E-001
31/08/2025 11:46:33.5575	-3,1784433E+002	-1,7268570E-001
31/08/2025 11:46:36.9575	-3,1786984E+002	-1,7306311E-001
31/08/2025 11:46:40.3575	-3,1784433E+002	-1,7355834E-001
31/08/2025 11:46:43.7575	-3,1789529E+002	-1,7399777E-001
31/08/2025 11:46:47.1575	-3,1781256E+002	-1,7448589E-001
31/08/2025 11:46:50.5575	-3,1789529E+002	-1,7495517E-001
31/08/2025 11:46:53.9575	-3,1787619E+002	-1,7534417E-001
31/08/2025 11:46:57.3575	-3,1781894E+002	-1,7581685E-001
31/08/2025 11:47:00.7575	-3,1791440E+002	-1,7635447E-001
31/08/2025 11:47:04.1575	-3,1787619E+002	-1,7678146E-001
31/08/2025 11:47:07.5575	-3,1786984E+002	-1,7722908E-001
31/08/2025 11:47:10.9575	-3,1788254E+002	-1,7768614E-001
31/08/2025 11:47:14.3575	-3,1786346E+002	-1,7823821E-001
31/08/2025 11:47:17.7575	-3,1787619E+002	-1,7868014E-001
31/08/2025 11:47:17.8577	-3,1792075E+002	-1,7874682E-001