File: data/phase_2a/Sergey/2/20.7/02 polarisation/SN50_C6aD1E1_hr 0,1MFeCN6_in_1M_KCl_3306mL_symmetric_balanced_4_point_PEIS_10mHz_200kHz_10mV_01_04_CA_C16.txt
time/s	<I>/mA	Ewe/V
31/08/2025 11:47:18.9561	1,435158946355032E+002	-1,9971081E-003
31/08/2025 11:47:23.9561	2,950730655059812E+001	-2,0353077E-003
31/08/2025 11:47:28.9561	1,245293007602692E+001	-2,0544075E-003
31/08/2025 11:47:33.9561	8,566094968223581E+000	-2,1117069E-003
31/08/2025 11:47:38.9561	8,480548825454711E+000	-2,1117069E-003
31/08/2025 11:47:43.9561	9,007165092849718E+000	-2,1117069E-003
31/08/2025 11:47:48.9561	9,328757954025264E+000	-2,1117069E-003
31/08/2025 11:47:53.9561	9,494448815345748E+000	-2,2263059E-003
31/08/2025 11:47:58.9561	9,583371918678282E+000	-2,0926071E-003
31/08/2025 11:48:03.9561	9,595574024581907E+000	-2,1117069E-003
31/08/2025 11:48:08.9561	9,574645712089534E+000	-2,0735073E-003
31/08/2025 11:48:13.9561	9,544450429153443E+000	-2,1308069E-003
31/08/2025 11:48:18.9561	9,507320082092292E+000	-2,1308069E-003
31/08/2025 11:48:23.9561	9,469265712356560E+000	-2,1308069E-003
31/08/2025 11:48:28.9561	9,432567001914947E+000	-2,1308069E-003
31/08/2025 11:48:33.9561	9,400459562301620E+000	-2,1881063E-003
31/08/2025 11:48:38.9561	9,368952897071821E+000	-2,1308069E-003
31/08/2025 11:48:43.9561	9,337668789291371E+000	-2,1881063E-003
31/08/2025 11:48:48.9561	9,313600858879056E+000	-2,0544075E-003
31/08/2025 11:48:53.9561	9,283269645500184E+000	-2,1117069E-003
31/08/2025 11:48:58.9561	9,247650094032288E+000	-2,1308069E-003
31/08/2025 11:49:03.9561	9,213367503166197E+000	-2,1881063E-003
31/08/2025 11:49:08.9561	9,190755826759338E+000	-2,1308069E-003
31/08/2025 11:49:13.9561	9,161294887161255E+000	-2,2454057E-003
31/08/2025 11:49:18.9561	9,142483055686938E+000	-2,1499067E-003
31/08/2025 11:49:23.9561	9,103992616462691E+000	-2,1690065E-003
31/08/2025 11:49:28.9561	9,076567823791493E+000	-2,0544075E-003
31/08/2025 11:49:33.9561	9,042754304313647E+000	-2,1117069E-003
31/08/2025 11:49:38.9561	9,012754720115652E+000	-2,1117069E-003
31/08/2025 11:49:43.9561	8,981060172271711E+000	-2,1690065E-003
31/08/2025 11:49:48.9561	8,949277637290948E+000	-2,0926071E-003
31/08/2025 11:49:53.9561	8,918949309539784E+000	-1,9971081E-003
31/08/2025 11:49:58.9561	8,883168021965020E+000	-2,0353077E-003
31/08/2025 11:50:03.9561	8,860609950065612E+000	-2,1308069E-003
31/08/2025 11:50:08.9561	8,829191788101184E+000	-2,1499067E-003
31/08/2025 11:50:13.9561	8,802621255493136E+000	-2,1308069E-003
31/08/2025 11:50:18.9561	8,771374808502188E+000	-2,1308069E-003
31/08/2025 11:50:23.9561	8,744996832847590E+000	-2,0926071E-003
31/08/2025 11:50:28.9561	8,716446180915824E+000	-2,0926071E-003
31/08/2025 11:50:33.9561	8,682098661422714E+000	-2,0735073E-003
31/08/2025 11:50:38.9561	8,655475249671923E+000	-2,1881063E-003
31/08/2025 11:50:43.9561	8,628838782691929E+000	-2,0162079E-003
31/08/2025 11:50:48.9561	8,598722397804259E+000	-2,1117069E-003
31/08/2025 11:50:53.9561	8,579290245819095E+000	-2,0926071E-003
31/08/2025 11:50:58.9561	8,550940370941163E+000	-2,1308069E-003
31/08/2025 11:51:03.9561	8,523450121498101E+000	-2,1690065E-003
31/08/2025 11:51:08.9561	8,492869098854044E+000	-2,1690065E-003
31/08/2025 11:51:13.9561	8,462238262748716E+000	-2,1499067E-003
31/08/2025 11:51:18.9561	8,439543717193605E+000	-2,0926071E-003
31/08/2025 11:51:23.9561	8,416235238838169E+000	-2,0353077E-003
31/08/2025 11:51:28.9561	8,390554715919478E+000	-2,1308069E-003
31/08/2025 11:51:33.9561	8,361534234237666E+000	-2,1117069E-003
31/08/2025 11:51:38.9561	8,328352212142931E+000	-2,0735073E-003
31/08/2025 11:51:43.9561	8,303968459701537E+000	-2,0735073E-003
31/08/2025 11:51:48.9561	8,277834578323365E+000	-2,0926071E-003
31/08/2025 11:51:53.9561	8,252632267379752E+000	-2,1690065E-003
31/08/2025 11:51:58.9561	8,234744760894756E+000	-2,1117069E-003
31/08/2025 11:52:03.9561	8,202114387512182E+000	-2,0162079E-003
31/08/2025 11:52:08.9561	8,172556179237347E+000	-2,0926071E-003
31/08/2025 11:52:13.9561	8,148093828392035E+000	-2,0735073E-003
31/08/2025 11:52:18.9561	8,121748701095584E+000	-2,2645055E-003
31/08/2025 11:52:23.9561	8,099675415420521E+000	-2,1499067E-003
31/08/2025 11:52:28.9561	8,074696386146542E+000	-2,2263059E-003
31/08/2025 11:52:33.9561	8,042932785701737E+000	-2,1499067E-003
31/08/2025 11:52:38.9561	8,016560813331580E+000	-2,1881063E-003
31/08/2025 11:52:43.9561	7,990689281177520E+000	-2,0353077E-003
31/08/2025 11:52:48.9561	7,964088645267481E+000	-2,1499067E-003
31/08/2025 11:52:53.9561	7,946761448383313E+000	-2,2072061E-003
31/08/2025 11:52:58.9561	7,919595009613005E+000	-2,1117069E-003
31/08/2025 11:53:03.9561	7,890360426807398E+000	-2,0926071E-003
31/08/2025 11:53:08.9561	7,863914128112782E+000	-1,9971081E-003
31/08/2025 11:53:13.9561	7,847095384883858E+000	-2,1308069E-003
31/08/2025 11:53:18.9561	7,820626198196408E+000	-2,1308069E-003
31/08/2025 11:53:23.9561	7,799727558994277E+000	-2,1499067E-003
31/08/2025 11:53:28.9561	7,767417585277542E+000	-2,0926071E-003
31/08/2025 11:53:33.9561	7,739692493343355E+000	-2,1117069E-003
31/08/2025 11:53:38.9561	7,712704763412461E+000	-2,1881063E-003
31/08/2025 11:53:43.9561	7,685404075813295E+000	-2,1308069E-003
31/08/2025 11:53:48.9561	7,660919751453392E+000	-2,0926071E-003
31/08/2025 11:53:53.9561	7,645437917232499E+000	-2,0926071E-003
31/08/2025 11:53:58.9561	7,612899116611459E+000	-2,0735073E-003
31/08/2025 11:54:03.9561	7,585933228588102E+000	-1,9780083E-003
31/08/2025 11:54:08.9561	7,566431398773190E+000	-2,0735073E-003
31/08/2025 11:54:13.9561	7,540607282638547E+000	-2,0735073E-003
31/08/2025 11:54:18.9561	7,520312895584098E+000	-2,1117069E-003
31/08/2025 11:54:23.9561	7,492517214775077E+000	-2,1690065E-003
31/08/2025 11:54:28.9561	7,477920298576322E+000	-2,1499067E-003
31/08/2025 11:54:33.9561	7,446654913234710E+000	-2,0353077E-003
31/08/2025 11:54:38.9561	7,418649927234640E+000	-2,1117069E-003
31/08/2025 11:54:43.9561	7,406557705402378E+000	-2,1690065E-003
31/08/2025 11:54:48.9561	7,377494444942471E+000	-2,1881063E-003
31/08/2025 11:54:53.9561	7,359509707164761E+000	-2,1308069E-003
31/08/2025 11:54:58.9561	7,332799261856081E+000	-2,0735073E-003
31/08/2025 11:55:03.9561	7,314761867713912E+000	-2,1690065E-003
31/08/2025 11:55:08.9561	7,284392706108065E+000	-2,0735073E-003
31/08/2025 11:55:13.9561	7,263423182678210E+000	-2,1117069E-003
31/08/2025 11:55:18.9561	7,243974316692345E+000	-2,0926071E-003
31/08/2025 11:55:23.9561	7,214443784713751E+000	-2,2263059E-003
31/08/2025 11:55:28.9561	7,194128890609704E+000	-2,1117069E-003
31/08/2025 11:55:33.9561	7,171552016353587E+000	-2,2072061E-003
31/08/2025 11:55:38.9561	7,153193595886222E+000	-2,1690065E-003
31/08/2025 11:55:43.9561	7,124683037090307E+000	-2,0353077E-003
31/08/2025 11:55:48.9561	7,111018233680721E+000	-2,2072061E-003
31/08/2025 11:55:53.9561	7,080106985759727E+000	-1,9971081E-003
31/08/2025 11:55:58.9561	7,055909233760829E+000	-2,1308069E-003
31/08/2025 11:56:03.9561	7,035235779857601E+000	-2,1499067E-003
31/08/2025 11:56:08.9561	7,015948617935180E+000	-2,0926071E-003
31/08/2025 11:56:13.9561	7,001716059207915E+000	-2,1117069E-003
31/08/2025 11:56:18.9561	6,968263498973840E+000	-2,1308069E-003
31/08/2025 11:56:23.9561	6,949024986457800E+000	-2,1881063E-003
31/08/2025 11:56:28.9561	6,927446174621565E+000	-2,1881063E-003
31/08/2025 11:56:33.9561	6,906490393638606E+000	-2,1881063E-003
31/08/2025 11:56:38.9561	6,877959645175935E+000	-2,1308069E-003
31/08/2025 11:56:43.9561	6,859734559822082E+000	-2,1308069E-003
31/08/2025 11:56:48.9561	6,844407857131955E+000	-2,0926071E-003
31/08/2025 11:56:53.9561	6,822071257781971E+000	-1,9780083E-003
31/08/2025 11:56:58.9561	6,791716769599901E+000	-2,1117069E-003
31/08/2025 11:57:03.9561	6,778665322017645E+000	-2,2454057E-003
31/08/2025 11:57:08.9561	6,758252189826962E+000	-2,0926071E-003
31/08/2025 11:57:13.9561	6,739292661190031E+000	-2,1117069E-003
31/08/2025 11:57:18.9561	6,714971371555322E+000	-2,0544075E-003
31/08/2025 11:57:23.9561	6,705089544868470E+000	-2,0544075E-003
31/08/2025 11:57:28.9561	6,678364256668090E+000	-2,0353077E-003
31/08/2025 11:57:33.9561	6,654167771625509E+000	-2,1117069E-003
31/08/2025 11:57:38.9561	6,632267226314525E+000	-2,2072061E-003
31/08/2025 11:57:43.9561	6,610969890022275E+000	-2,0926071E-003
31/08/2025 11:57:48.9561	6,586215156078325E+000	-2,1117069E-003
31/08/2025 11:57:53.9561	6,565031751823412E+000	-2,0544075E-003
31/08/2025 11:57:58.9561	6,544158057975764E+000	-2,0735073E-003
31/08/2025 11:58:03.9561	6,525290174865717E+000	-2,1308069E-003
31/08/2025 11:58:08.9561	6,512450854301449E+000	-2,1690065E-003
31/08/2025 11:58:13.9561	6,491033251571650E+000	-2,0926071E-003
31/08/2025 11:58:18.9561	6,470349250888823E+000	-2,1690065E-003
31/08/2025 11:58:23.9561	6,449302208995818E+000	-2,1308069E-003
31/08/2025 11:58:28.9561	6,430772643756868E+000	-2,1499067E-003
31/08/2025 11:58:33.9561	6,411662640094754E+000	-2,1117069E-003
31/08/2025 11:58:38.9561	6,396182868576048E+000	-2,1117069E-003
31/08/2025 11:58:43.9561	6,374786548328387E+000	-2,1690065E-003
31/08/2025 11:58:48.9561	6,359937810039511E+000	-2,1690065E-003
31/08/2025 11:58:53.9561	6,337572126102446E+000	-2,1881063E-003
31/08/2025 11:58:58.9561	6,319994376277918E+000	-2,1690065E-003
31/08/2025 11:59:03.9561	6,298921192455289E+000	-2,1117069E-003
31/08/2025 11:59:08.9561	6,276381063461301E+000	-2,0735073E-003
31/08/2025 11:59:13.9561	6,258077695655814E+000	-2,2072061E-003
31/08/2025 11:59:18.9561	6,242221849632262E+000	-2,0544075E-003
31/08/2025 11:59:23.9561	6,215792741775509E+000	-2,1117069E-003
31/08/2025 11:59:28.9561	6,194769265842439E+000	-2,1117069E-003
31/08/2025 11:59:33.9561	6,176099260044097E+000	-2,0926071E-003
31/08/2025 11:59:38.9561	6,154794776058189E+000	-2,0735073E-003
31/08/2025 11:59:43.9561	6,134794686698914E+000	-2,0544075E-003
31/08/2025 11:59:48.9561	6,111810618305206E+000	-2,0926071E-003
31/08/2025 11:59:53.9561	6,104204257488249E+000	-2,0544075E-003
31/08/2025 11:59:58.9561	6,085030625152584E+000	-2,0735073E-003
31/08/2025 12:00:03.9561	6,068827179431914E+000	-2,1881063E-003
31/08/2025 12:00:08.9561	6,043765951633453E+000	-2,1308069E-003
31/08/2025 12:00:13.9561	6,024925398254382E+000	-2,1881063E-003
31/08/2025 12:00:18.9561	6,011168453216552E+000	-2,0926071E-003
31/08/2025 12:00:23.9561	5,999359766960140E+000	-2,1117069E-003
31/08/2025 12:00:28.9561	5,970996326160432E+000	-2,0544075E-003
31/08/2025 12:00:33.9561	5,956914025878902E+000	-2,0544075E-003
31/08/2025 12:00:38.9561	5,934384634494776E+000	-2,0353077E-003
31/08/2025 12:00:43.9561	5,923561955738066E+000	-2,0162079E-003
31/08/2025 12:00:48.9561	5,898633407592769E+000	-2,0544075E-003
31/08/2025 12:00:53.9561	5,876601756858818E+000	-2,1308069E-003
31/08/2025 12:00:58.9561	5,862167459297176E+000	-2,1308069E-003
31/08/2025 12:01:03.9561	5,838575487041467E+000	-2,1117069E-003
31/08/2025 12:01:08.9561	5,827275174045560E+000	-2,1117069E-003
31/08/2025 12:01:13.9561	5,810842118263238E+000	-2,1499067E-003
31/08/2025 12:01:18.9561	5,790754251956940E+000	-2,0926071E-003
31/08/2025 12:01:23.9561	5,770597510528560E+000	-2,1690065E-003
31/08/2025 12:01:28.9561	5,750443896007535E+000	-2,0544075E-003
31/08/2025 12:01:33.9561	5,735743530178070E+000	-2,0735073E-003
31/08/2025 12:01:38.9561	5,722660687446577E+000	-2,1690065E-003
31/08/2025 12:01:43.9561	5,699381958389267E+000	-2,0926071E-003
31/08/2025 12:01:48.9561	5,676067844867704E+000	-2,1690065E-003
31/08/2025 12:01:53.9561	5,666309410953520E+000	-2,1499067E-003
31/08/2025 12:01:58.9561	5,642580155086506E+000	-2,1117069E-003
31/08/2025 12:02:03.9561	5,635578030872338E+000	-2,1117069E-003
31/08/2025 12:02:08.9561	5,615648095417015E+000	-2,1117069E-003
31/08/2025 12:02:13.9561	5,599738041591642E+000	-2,1499067E-003
31/08/2025 12:02:18.9561	5,578754290390009E+000	-2,0735073E-003
31/08/2025 12:02:23.9561	5,562908349800097E+000	-2,1308069E-003
31/08/2025 12:02:28.9561	5,541569765377041E+000	-2,1308069E-003
31/08/2025 12:02:33.9561	5,526746572589872E+000	-2,1117069E-003
31/08/2025 12:02:38.9561	5,506268093681328E+000	-2,1117069E-003
31/08/2025 12:02:43.9561	5,487495937156673E+000	-2,0544075E-003
31/08/2025 12:02:48.9561	5,470020471096021E+000	-2,1499067E-003
31/08/2025 12:02:53.9561	5,466792119598388E+000	-2,0544075E-003
31/08/2025 12:02:58.9561	5,442342321109770E+000	-2,1690065E-003
31/08/2025 12:03:03.9561	5,419600003242492E+000	-2,1690065E-003
31/08/2025 12:03:08.9561	5,410437069034575E+000	-2,2454057E-003
31/08/2025 12:03:13.9561	5,387906437015531E+000	-2,1308069E-003
31/08/2025 12:03:18.9561	5,366157882308954E+000	-2,0926071E-003
31/08/2025 12:03:23.9561	5,351321764087672E+000	-2,1499067E-003
31/08/2025 12:03:28.9561	5,336341676044455E+000	-2,1881063E-003
31/08/2025 12:03:33.9561	5,317314536857602E+000	-2,1690065E-003
31/08/2025 12:03:38.9561	5,304509782981867E+000	-2,1499067E-003
31/08/2025 12:03:43.9561	5,287428892803188E+000	-2,1117069E-003
31/08/2025 12:03:48.9561	5,276715376186367E+000	-2,0926071E-003
31/08/2025 12:03:53.9561	5,261648682403562E+000	-2,2836053E-003
31/08/2025 12:03:58.9561	5,239944340991975E+000	-2,1881063E-003
31/08/2025 12:04:03.9561	5,223180282688141E+000	-2,2072061E-003
31/08/2025 12:04:08.9561	5,207750005149833E+000	-2,2072061E-003
31/08/2025 12:04:13.9561	5,194733527564999E+000	-2,0735073E-003
31/08/2025 12:04:18.9561	5,178210795688621E+000	-2,1308069E-003
31/08/2025 12:04:23.9561	5,164856971359249E+000	-2,2263059E-003
31/08/2025 12:04:28.9561	5,143071731472013E+000	-2,0353077E-003
31/08/2025 12:04:33.9561	5,127628742313384E+000	-2,1499067E-003
31/08/2025 12:04:38.9561	5,110717601299285E+000	-2,0735073E-003
31/08/2025 12:04:43.9561	5,098715692806245E+000	-2,1308069E-003
31/08/2025 12:04:48.9561	5,081169477367396E+000	-2,0735073E-003
31/08/2025 12:04:53.9561	5,063837146759028E+000	-2,1308069E-003
31/08/2025 12:04:58.9561	5,048062254619595E+000	-2,1690065E-003
31/08/2025 12:05:03.9561	5,030703159427638E+000	-2,1308069E-003
31/08/2025 12:05:08.9561	5,016172894668578E+000	-2,0544075E-003
31/08/2025 12:05:13.9561	4,998561411285399E+000	-2,1308069E-003
31/08/2025 12:05:18.9561	4,983618117332455E+000	-1,9971081E-003
31/08/2025 12:05:23.9561	4,963970026779165E+000	-2,1881063E-003
31/08/2025 12:05:28.9561	4,952728827190391E+000	-2,0926071E-003
31/08/2025 12:05:33.9561	4,933644820785521E+000	-2,0926071E-003
31/08/2025 12:05:38.9561	4,927048863601669E+000	-2,0544075E-003
31/08/2025 12:05:43.9561	4,907861784362787E+000	-2,1117069E-003
31/08/2025 12:05:48.9561	4,890525000953659E+000	-2,0353077E-003
31/08/2025 12:05:53.9561	4,871168201160422E+000	-2,0926071E-003
31/08/2025 12:05:58.9561	4,863492146110531E+000	-2,1117069E-003
31/08/2025 12:06:03.9561	4,846549579620358E+000	-1,9589085E-003
31/08/2025 12:06:08.9561	4,825452645778654E+000	-2,0926071E-003
31/08/2025 12:06:13.9561	4,812214282989501E+000	-2,0926071E-003
31/08/2025 12:06:18.9561	4,798008017826078E+000	-2,0735073E-003
31/08/2025 12:06:23.9561	4,784251069450377E+000	-2,1690065E-003
31/08/2025 12:06:28.9561	4,770578321361540E+000	-2,0735073E-003
31/08/2025 12:06:33.9561	4,760661714649196E+000	-2,1690065E-003
31/08/2025 12:06:38.9561	4,742522288799282E+000	-2,2263059E-003
31/08/2025 12:06:43.9561	4,722942468452445E+000	-2,1499067E-003
31/08/2025 12:06:48.9561	4,713979876899714E+000	-2,2454057E-003
31/08/2025 12:06:53.9561	4,697912657642362E+000	-2,1690065E-003
31/08/2025 12:06:58.9561	4,673973865222933E+000	-2,1117069E-003
31/08/2025 12:07:03.9561	4,662483799457547E+000	-2,0544075E-003
31/08/2025 12:07:08.9561	4,644675694847106E+000	-2,0353077E-003
31/08/2025 12:07:13.9561	4,633260770606991E+000	-2,1881063E-003
31/08/2025 12:07:18.9561	4,609309193229675E+000	-2,1308069E-003
31/08/2025 12:07:23.9561	4,596880592727643E+000	-2,1308069E-003
31/08/2025 12:07:28.9561	4,578541327857970E+000	-2,0353077E-003
31/08/2025 12:07:33.9561	4,567170646190641E+000	-2,1881063E-003
31/08/2025 12:07:38.9561	4,550567268085473E+000	-2,0926071E-003
31/08/2025 12:07:43.9561	4,532387806320187E+000	-2,0353077E-003
31/08/2025 12:07:48.9561	4,524330804157245E+000	-2,1690065E-003
31/08/2025 12:07:53.9561	4,446236489391325E+000	-2,1308069E-003
31/08/2025 12:07:58.9561	4,430431693649282E+000	-2,1308069E-003
31/08/2025 12:08:03.9561	4,421330089664451E+000	-1,9971081E-003
31/08/2025 12:08:08.9561	4,404546191787716E+000	-2,0735073E-003
31/08/2025 12:08:13.9561	4,385773776626579E+000	-2,1308069E-003
31/08/2025 12:08:18.9561	4,374398721122741E+000	-2,1308069E-003
31/08/2025 12:08:23.9561	4,358634619903555E+000	-2,1690065E-003
31/08/2025 12:08:28.9561	4,343102317619326E+000	-2,1308069E-003
31/08/2025 12:08:33.9561	4,332185747432709E+000	-1,9971081E-003
31/08/2025 12:08:38.9561	4,315710223102556E+000	-2,1308069E-003
31/08/2025 12:08:43.9561	4,300784658336632E+000	-2,1499067E-003
31/08/2025 12:08:48.9561	4,283308367919915E+000	-2,1881063E-003
31/08/2025 12:08:53.9561	4,264883997631073E+000	-2,0162079E-003
31/08/2025 12:08:58.9561	4,254219361209863E+000	-2,1499067E-003
31/08/2025 12:09:03.9561	4,240823574447631E+000	-2,1117069E-003
31/08/2025 12:09:08.9561	4,227650627136230E+000	-1,9780083E-003
31/08/2025 12:09:13.9561	4,220535649871827E+000	-2,0544075E-003
31/08/2025 12:09:18.9561	4,206138696193690E+000	-2,1499067E-003
31/08/2025 12:09:23.9561	4,186313165187835E+000	-2,2072061E-003
31/08/2025 12:09:28.9561	4,170688584613799E+000	-2,0162079E-003
31/08/2025 12:09:33.9561	4,156928700542437E+000	-2,2072061E-003
31/08/2025 12:09:38.9561	4,156367345809933E+000	-2,0544075E-003
31/08/2025 12:09:43.9561	4,139517895793908E+000	-2,1308069E-003
31/08/2025 12:09:48.9561	4,130640352725976E+000	-2,1881063E-003
31/08/2025 12:09:53.9561	4,109477939796449E+000	-2,1117069E-003
31/08/2025 12:09:58.9561	4,096975037956227E+000	-2,1308069E-003
31/08/2025 12:10:03.9561	4,077238222789759E+000	-2,1499067E-003
31/08/2025 12:10:08.9561	4,061395816707602E+000	-2,1308069E-003
31/08/2025 12:10:13.9561	4,048443843936916E+000	-2,0544075E-003
31/08/2025 12:10:18.9561	4,032278579807279E+000	-2,1308069E-003
31/08/2025 12:10:23.9561	4,017929449796675E+000	-2,1499067E-003
31/08/2025 12:10:28.9561	4,011003312969208E+000	-2,2072061E-003
31/08/2025 12:10:33.9561	3,996881634521472E+000	-2,0735073E-003
31/08/2025 12:10:38.9561	3,979300424003597E+000	-2,1881063E-003
31/08/2025 12:10:43.9561	3,970412844991678E+000	-2,0926071E-003
31/08/2025 12:10:48.9561	3,960559487771988E+000	-2,1499067E-003
31/08/2025 12:10:53.9561	3,939989399385453E+000	-2,1117069E-003
31/08/2025 12:10:58.9561	3,930996613407135E+000	-2,0926071E-003
31/08/2025 12:11:03.9561	3,916610126829148E+000	-2,1499067E-003
31/08/2025 12:11:08.9561	3,911391141414640E+000	-2,0735073E-003
31/08/2025 12:11:13.9561	3,902512892103189E+000	-2,0926071E-003
31/08/2025 12:11:18.9561	3,888517000770563E+000	-2,1117069E-003
31/08/2025 12:11:23.9561	3,872587154912949E+000	-2,1117069E-003
31/08/2025 12:11:28.9561	3,860998487758636E+000	-2,1499067E-003
31/08/2025 12:11:33.9561	3,852166794776906E+000	-2,1499067E-003
31/08/2025 12:11:38.9561	3,834554946470259E+000	-2,2263059E-003
31/08/2025 12:11:43.9561	3,821605925655365E+000	-2,1308069E-003
31/08/2025 12:11:48.9561	3,805468058872222E+000	-2,0735073E-003
31/08/2025 12:11:53.9561	3,793782043170921E+000	-2,1308069E-003
31/08/2025 12:11:58.9561	3,779469366312021E+000	-2,1308069E-003
31/08/2025 12:12:03.9561	3,766571165990825E+000	-2,0353077E-003
31/08/2025 12:12:08.9561	3,752275284051890E+000	-2,0926071E-003
31/08/2025 12:12:13.9561	3,738742238903043E+000	-2,1308069E-003
31/08/2025 12:12:18.9561	3,733526555490485E+000	-2,0735073E-003
31/08/2025 12:12:23.9561	3,711038219022754E+000	-2,0544075E-003
31/08/2025 12:12:28.9561	3,698571828699102E+000	-2,0735073E-003
31/08/2025 12:12:33.9561	3,695686692762365E+000	-2,2263059E-003
31/08/2025 12:12:38.9561	3,680029232311242E+000	-2,1308069E-003
31/08/2025 12:12:43.9561	3,659985244083401E+000	-2,1690065E-003
31/08/2025 12:12:48.9561	3,651135158681853E+000	-2,0544075E-003
31/08/2025 12:12:53.9561	3,639255952358244E+000	-1,9589085E-003
31/08/2025 12:12:58.9561	3,625929747247682E+000	-2,1690065E-003
31/08/2025 12:13:03.9561	3,620569746875759E+000	-2,0544075E-003
31/08/2025 12:13:08.9561	3,608849047708511E+000	-2,2072061E-003
31/08/2025 12:13:13.9561	3,592262326335902E+000	-2,1499067E-003
31/08/2025 12:13:18.9561	3,579622589302062E+000	-2,0544075E-003
31/08/2025 12:13:23.9561	3,558863455247877E+000	-2,0926071E-003
31/08/2025 12:13:28.9561	3,553183644628518E+000	-2,0735073E-003
31/08/2025 12:13:33.9561	3,543144812297818E+000	-2,1308069E-003
31/08/2025 12:13:38.9561	3,533098045063014E+000	-2,1499067E-003
31/08/2025 12:13:43.9561	3,520403459024422E+000	-2,1690065E-003
31/08/2025 12:13:48.9561	3,511549280548095E+000	-2,1881063E-003
31/08/2025 12:13:53.9561	3,501533189725876E+000	-2,0926071E-003
31/08/2025 12:13:58.9561	3,484185166120511E+000	-2,1308069E-003
31/08/2025 12:14:03.9561	3,473383981418607E+000	-2,2645055E-003
31/08/2025 12:14:08.9561	3,460035338497161E+000	-2,1499067E-003
31/08/2025 12:14:13.9561	3,448104245090477E+000	-2,1117069E-003
31/08/2025 12:14:18.9561	3,436992257785789E+000	-2,0735073E-003
31/08/2025 12:14:23.9561	3,427984412097913E+000	-2,1499067E-003
31/08/2025 12:14:28.9561	3,415081752538680E+000	-2,1117069E-003
31/08/2025 12:14:33.9561	3,404209701013556E+000	-2,0544075E-003
31/08/2025 12:14:38.9561	3,389023399400713E+000	-2,1690065E-003
31/08/2025 12:14:43.9561	3,378633201694470E+000	-2,1117069E-003
31/08/2025 12:14:48.9561	3,363894859361636E+000	-2,0735073E-003
31/08/2025 12:14:53.9561	3,354499190568916E+000	-2,1308069E-003
31/08/2025 12:14:58.9561	3,339392959356303E+000	-2,1117069E-003
31/08/2025 12:15:03.9561	3,327260903406128E+000	-2,1881063E-003
31/08/2025 12:15:08.9561	3,322536874103541E+000	-2,0735073E-003
31/08/2025 12:15:13.9561	3,307505320262909E+000	-2,0926071E-003
31/08/2025 12:15:18.9561	3,295538327074048E+000	-2,1499067E-003
31/08/2025 12:15:23.9561	3,284540358400346E+000	-2,1690065E-003
31/08/2025 12:15:28.9561	3,279342052078242E+000	-2,0926071E-003
31/08/2025 12:15:33.9561	3,264219789886473E+000	-2,2263059E-003
31/08/2025 12:15:38.9561	3,252339420700071E+000	-2,1308069E-003
31/08/2025 12:15:43.9561	3,245124185705180E+000	-2,0353077E-003
31/08/2025 12:15:48.9561	3,220109250450133E+000	-2,1117069E-003
31/08/2025 12:15:53.9561	3,210393413972855E+000	-2,2263059E-003
31/08/2025 12:15:58.9561	3,202471977281570E+000	-2,1690065E-003
31/08/2025 12:16:03.9561	3,187985506916043E+000	-2,1499067E-003
31/08/2025 12:16:08.9561	3,185073414659499E+000	-2,1117069E-003
31/08/2025 12:16:13.9561	3,169840284824371E+000	-2,1117069E-003
31/08/2025 12:16:18.9561	3,165671770334242E+000	-2,2072061E-003
31/08/2025 12:16:23.9561	3,152275748157500E+000	-2,0544075E-003
31/08/2025 12:16:28.9561	3,140966169452667E+000	-2,0735073E-003
31/08/2025 12:16:33.9561	3,130820107555387E+000	-2,1499067E-003
31/08/2025 12:16:38.9561	3,120310281658172E+000	-2,0735073E-003
31/08/2025 12:16:43.9561	3,114322161722184E+000	-2,1308069E-003
31/08/2025 12:16:48.9561	3,107461290073388E+000	-2,0735073E-003
31/08/2025 12:16:53.9561	3,094186976766586E+000	-2,0544075E-003
31/08/2025 12:16:58.9561	3,087070169448854E+000	-2,1308069E-003
31/08/2025 12:17:03.9561	3,070717962884899E+000	-2,1117069E-003
31/08/2025 12:17:08.9561	3,064595266151425E+000	-2,0162079E-003
31/08/2025 12:17:13.9561	3,059557720661161E+000	-2,0735073E-003
31/08/2025 12:17:18.9561	3,043516807460783E+000	-2,1881063E-003
31/08/2025 12:17:23.9561	3,030938132810592E+000	-2,1690065E-003
31/08/2025 12:17:28.9561	3,029072255182266E+000	-2,2263059E-003
31/08/2025 12:17:33.9561	3,015249033069610E+000	-2,0544075E-003
31/08/2025 12:17:38.9561	3,011234560680386E+000	-1,9780083E-003
31/08/2025 12:17:43.9561	2,997097782421108E+000	-2,0162079E-003
31/08/2025 12:17:48.9561	2,989746959114072E+000	-2,0353077E-003
31/08/2025 12:17:53.9561	2,973507494926444E+000	-2,1117069E-003
31/08/2025 12:17:58.9561	2,967341894960403E+000	-2,1881063E-003
31/08/2025 12:18:03.9561	2,955353006410599E+000	-2,0544075E-003
31/08/2025 12:18:08.9561	2,941315030288692E+000	-2,1499067E-003
31/08/2025 12:18:13.9561	2,939337050056455E+000	-2,1881063E-003
31/08/2025 12:18:18.9561	2,927214097261427E+000	-2,1117069E-003
31/08/2025 12:18:23.9561	2,916595217943192E+000	-2,1499067E-003
31/08/2025 12:18:28.9561	2,908794116830826E+000	-1,9971081E-003
31/08/2025 12:18:33.9561	2,899343297576902E+000	-2,1499067E-003
31/08/2025 12:18:38.9561	2,887314411258693E+000	-2,1881063E-003
31/08/2025 12:18:43.9561	2,875329936599730E+000	-2,1308069E-003
31/08/2025 12:18:48.9561	2,870551621866223E+000	-2,1499067E-003
31/08/2025 12:18:53.9561	2,861498072767258E+000	-2,2072061E-003
31/08/2025 12:18:58.9561	2,856166668796533E+000	-2,1881063E-003
31/08/2025 12:19:03.9561	2,840171757602690E+000	-2,0735073E-003
31/08/2025 12:19:08.9561	2,841504665994641E+000	-2,0926071E-003
31/08/2025 12:19:13.9561	2,829597078990929E+000	-2,2072061E-003
31/08/2025 12:19:18.9561	2,819801164436335E+000	-2,0926071E-003
31/08/2025 12:19:23.9561	2,809383602380752E+000	-2,1690065E-003
31/08/2025 12:19:28.9561	2,801440630197526E+000	-2,0926071E-003
31/08/2025 12:19:33.9561	2,795984778261182E+000	-2,1117069E-003
31/08/2025 12:19:38.9561	2,782791116476059E+000	-2,0926071E-003
31/08/2025 12:19:43.9561	2,774935338973997E+000	-2,1499067E-003
31/08/2025 12:19:48.9561	2,775777542972563E+000	-2,1308069E-003
31/08/2025 12:19:53.9561	2,757698027610779E+000	-2,1499067E-003
31/08/2025 12:19:58.9561	2,751074121284482E+000	-2,2263059E-003
31/08/2025 12:20:03.9561	2,747309606313706E+000	-2,0926071E-003
31/08/2025 12:20:08.9561	2,729532250308989E+000	-2,1117069E-003
31/08/2025 12:20:13.9561	2,720549277067185E+000	-2,1308069E-003
31/08/2025 12:20:18.9561	2,712886854791638E+000	-2,0353077E-003
31/08/2025 12:20:23.9561	2,704961082458494E+000	-2,0926071E-003
31/08/2025 12:20:28.9561	2,695010588884351E+000	-2,0735073E-003
31/08/2025 12:20:33.9561	2,690697228336333E+000	-2,1308069E-003
31/08/2025 12:20:38.9561	2,679990580844876E+000	-2,1117069E-003
31/08/2025 12:20:43.9561	2,670246597623825E+000	-2,0353077E-003
31/08/2025 12:20:48.9561	2,665093705415721E+000	-2,1690065E-003
31/08/2025 12:20:53.9561	2,658576438617708E+000	-2,1117069E-003
31/08/2025 12:20:58.9561	2,654388635206221E+000	-2,0926071E-003
31/08/2025 12:21:03.9561	2,638006240892409E+000	-2,1308069E-003
31/08/2025 12:21:08.9561	2,632309587287899E+000	-2,0735073E-003
31/08/2025 12:21:13.9561	2,624515758371353E+000	-1,9971081E-003
31/08/2025 12:21:18.9561	2,616272070026390E+000	-2,0926071E-003
31/08/2025 12:21:23.9561	2,624549190092083E+000	-2,1690065E-003
31/08/2025 12:21:28.9561	2,620208905744548E+000	-2,1117069E-003
31/08/2025 12:21:33.9561	2,619027572870255E+000	-2,0162079E-003
31/08/2025 12:21:38.9561	2,607892371463770E+000	-2,1117069E-003
31/08/2025 12:21:43.9561	2,603834087276454E+000	-2,0353077E-003
31/08/2025 12:21:48.9561	2,611583974647520E+000	-2,2263059E-003
31/08/2025 12:21:53.9561	2,602376690149307E+000	-2,1499067E-003
31/08/2025 12:21:58.9561	2,594327416658402E+000	-1,9780083E-003
31/08/2025 12:22:03.9561	2,588949896812439E+000	-2,1308069E-003
31/08/2025 12:22:08.9561	2,581698006486889E+000	-2,1881063E-003
31/08/2025 12:22:13.9561	2,580599043750762E+000	-2,0735073E-003
31/08/2025 12:22:18.9561	2,570675625085830E+000	-2,2072061E-003
31/08/2025 12:22:23.9561	2,560428068685532E+000	-1,9207089E-003
31/08/2025 12:22:28.9561	2,556060951185223E+000	-2,0544075E-003
31/08/2025 12:22:33.9561	2,548626678037643E+000	-2,1308069E-003
31/08/2025 12:22:38.9561	2,542684379863736E+000	-2,0926071E-003
31/08/2025 12:22:43.9561	2,533265513372420E+000	-2,1308069E-003
31/08/2025 12:22:48.9561	2,530810820245743E+000	-2,0735073E-003
31/08/2025 12:22:53.9561	2,519922334766385E+000	-2,1499067E-003
31/08/2025 12:22:58.9561	2,519759473848339E+000	-2,1308069E-003
31/08/2025 12:23:03.9561	2,507086550235744E+000	-2,0353077E-003
31/08/2025 12:23:08.9561	2,497984974002833E+000	-1,9971081E-003
31/08/2025 12:23:13.9561	2,489930208826063E+000	-2,1308069E-003
31/08/2025 12:23:18.9561	2,484387798690797E+000	-2,0162079E-003
31/08/2025 12:23:23.9561	2,472529647970199E+000	-2,1117069E-003
31/08/2025 12:23:28.9561	2,468749463558197E+000	-2,0162079E-003
31/08/2025 12:23:33.9561	2,464231768846510E+000	-2,1117069E-003
31/08/2025 12:23:38.9561	2,455433518362042E+000	-2,0926071E-003
31/08/2025 12:23:43.9561	2,448255368280407E+000	-2,1308069E-003
31/08/2025 12:23:48.9561	2,436115762090681E+000	-2,1690065E-003
31/08/2025 12:23:53.9561	2,435478516578669E+000	-2,1117069E-003
31/08/2025 12:23:58.9561	2,428753695678708E+000	-2,0353077E-003
31/08/2025 12:24:03.9561	2,419408092260360E+000	-2,1690065E-003
31/08/2025 12:24:08.9561	2,415252520227426E+000	-2,0735073E-003
31/08/2025 12:24:13.9561	2,408206525135036E+000	-2,1881063E-003
31/08/2025 12:24:18.9561	2,404877638006210E+000	-2,0735073E-003
31/08/2025 12:24:23.9561	2,395465083122254E+000	-2,1499067E-003
31/08/2025 12:24:28.9561	2,387597069454193E+000	-2,0544075E-003
31/08/2025 12:24:33.9561	2,383896986818314E+000	-2,0544075E-003
31/08/2025 12:24:38.9561	2,369807972240447E+000	-2,1690065E-003
31/08/2025 12:24:43.9561	2,363345145320892E+000	-1,9780083E-003
31/08/2025 12:24:48.9561	2,356134652328491E+000	-2,1499067E-003
31/08/2025 12:24:53.9561	2,343792734289167E+000	-2,1499067E-003
31/08/2025 12:24:58.9561	2,338776920557017E+000	-2,1117069E-003
31/08/2025 12:25:03.9561	2,327572740650176E+000	-2,1499067E-003
31/08/2025 12:25:08.9561	2,321696132326117E+000	-2,0735073E-003
31/08/2025 12:25:13.9561	2,296948182582855E+000	-2,0926071E-003
31/08/2025 12:25:18.9561	2,284742100477219E+000	-2,1499067E-003
31/08/2025 12:25:23.9561	2,270260126590728E+000	-2,0735073E-003
31/08/2025 12:25:28.9561	2,261551790761949E+000	-2,0162079E-003
31/08/2025 12:25:33.9561	2,264531369495392E+000	-2,1690065E-003
31/08/2025 12:25:38.9561	2,263250097751618E+000	-2,0162079E-003
31/08/2025 12:25:43.9560	2,262692503738400E+000	-2,1117069E-003
31/08/2025 12:25:48.9560	2,261002575063703E+000	-2,0735073E-003
31/08/2025 12:25:53.9560	2,253821653461454E+000	-2,0353077E-003
31/08/2025 12:25:58.9560	2,243154816627499E+000	-2,0926071E-003
31/08/2025 12:26:03.9560	2,241690311479566E+000	-2,0544075E-003
31/08/2025 12:26:08.9560	2,233370844936367E+000	-2,0544075E-003
31/08/2025 12:26:13.9560	2,238330509948732E+000	-2,1308069E-003
31/08/2025 12:26:18.9560	2,228025435304642E+000	-2,1117069E-003
31/08/2025 12:26:23.9560	2,218586442089081E+000	-2,0926071E-003
31/08/2025 12:26:28.9560	2,213364879989623E+000	-2,2072061E-003
31/08/2025 12:26:33.9560	2,212244347286216E+000	-2,1690065E-003
31/08/2025 12:26:38.9560	2,198196391296387E+000	-2,1117069E-003
31/08/2025 12:26:43.9560	2,187592556524272E+000	-2,0544075E-003
31/08/2025 12:26:48.9560	2,176182341527934E+000	-2,0162079E-003
31/08/2025 12:26:53.9560	2,158688990879057E+000	-2,1499067E-003
31/08/2025 12:26:58.9560	2,142845227384562E+000	-2,0735073E-003
31/08/2025 12:27:03.9560	2,144380177736274E+000	-2,0926071E-003
31/08/2025 12:27:08.9560	2,121736768770218E+000	-1,9398087E-003
31/08/2025 12:27:13.9560	2,116901849222183E+000	-2,2072061E-003
31/08/2025 12:27:18.9560	2,113415049171444E+000	-2,0926071E-003
31/08/2025 12:27:23.9560	2,098669679927823E+000	-2,2263059E-003
31/08/2025 12:27:28.9560	2,088663124799726E+000	-2,1117069E-003
31/08/2025 12:27:33.9560	2,071572861862180E+000	-2,0735073E-003
31/08/2025 12:27:38.9560	2,072367919969558E+000	-2,0735073E-003
31/08/2025 12:27:43.9560	2,055920403289793E+000	-2,1308069E-003
31/08/2025 12:27:48.9560	2,050987166404724E+000	-2,1308069E-003
31/08/2025 12:27:53.9560	2,037587127971648E+000	-2,0544075E-003
31/08/2025 12:27:58.9560	2,030727300262448E+000	-2,0544075E-003
31/08/2025 12:28:03.9560	2,031322185468674E+000	-2,1117069E-003
31/08/2025 12:28:08.9560	2,018155356407163E+000	-2,1117069E-003
31/08/2025 12:28:13.9560	2,023031028151511E+000	-2,0544075E-003
31/08/2025 12:28:18.9560	2,003958945870399E+000	-2,2072061E-003
31/08/2025 12:28:23.9560	1,996197718763350E+000	-2,2072061E-003
31/08/2025 12:28:28.9560	2,001046897172928E+000	-2,2072061E-003
31/08/2025 12:28:33.9560	1,986220573687554E+000	-2,0353077E-003
31/08/2025 12:28:38.9560	1,987471317815775E+000	-2,1690065E-003
31/08/2025 12:28:43.9560	1,973731829571722E+000	-2,2072061E-003
31/08/2025 12:28:48.9560	1,966398784422871E+000	-2,1308069E-003
31/08/2025 12:28:53.9560	1,952737184572220E+000	-2,1117069E-003
31/08/2025 12:28:58.9560	1,948389509463309E+000	-2,0735073E-003
31/08/2025 12:29:03.9560	1,949436772489547E+000	-2,2072061E-003
31/08/2025 12:29:08.9560	1,940235699129097E+000	-2,0926071E-003
31/08/2025 12:29:13.9560	1,935972182726861E+000	-2,2072061E-003
31/08/2025 12:29:18.9560	1,927229129791257E+000	-2,1881063E-003
31/08/2025 12:29:23.9560	1,927353360390663E+000	-2,1690065E-003
31/08/2025 12:29:28.9560	1,914465536928176E+000	-2,0353077E-003
31/08/2025 12:29:33.9560	1,909849214005469E+000	-2,0544075E-003
31/08/2025 12:29:38.9560	1,900869176697732E+000	-2,1117069E-003
31/08/2025 12:29:43.9560	1,893208607959746E+000	-2,2263059E-003
31/08/2025 12:29:48.9560	1,888647379112236E+000	-2,0735073E-003
31/08/2025 12:29:53.9560	1,881581854629516E+000	-2,1499067E-003
31/08/2025 12:29:58.9560	1,871506064152715E+000	-1,9780083E-003
31/08/2025 12:30:03.9560	1,857544658541679E+000	-2,0926071E-003
31/08/2025 12:30:08.9560	1,855672620224951E+000	-2,1308069E-003
31/08/2025 12:30:13.9560	1,846887870478625E+000	-2,0162079E-003
31/08/2025 12:30:18.9560	1,843316105437276E+000	-2,1117069E-003
31/08/2025 12:30:23.9560	1,831124615955346E+000	-2,2263059E-003
31/08/2025 12:30:28.9560	1,837936690807339E+000	-2,1499067E-003
31/08/2025 12:30:33.9560	1,818038732862469E+000	-2,1881063E-003
31/08/2025 12:30:38.9560	1,809780662012098E+000	-2,0353077E-003
31/08/2025 12:30:43.9560	1,802119785237309E+000	-2,1499067E-003
31/08/2025 12:30:48.9560	1,802669737744331E+000	-2,1499067E-003
31/08/2025 12:30:53.9560	1,812181735110281E+000	-2,1117069E-003
31/08/2025 12:30:58.9560	1,788893118977546E+000	-2,1117069E-003
31/08/2025 12:31:03.9560	1,788947410941120E+000	-2,1690065E-003
31/08/2025 12:31:08.9560	1,783296047353740E+000	-2,0926071E-003
31/08/2025 12:31:13.9560	1,771932907676696E+000	-2,1117069E-003
31/08/2025 12:31:18.9560	1,772728632426258E+000	-2,1499067E-003
31/08/2025 12:31:23.9560	1,767231056737899E+000	-2,0735073E-003
31/08/2025 12:31:28.9560	1,759142204833026E+000	-2,1117069E-003
31/08/2025 12:31:33.9560	1,748157351684561E+000	-2,1499067E-003
31/08/2025 12:31:38.9560	1,743701200318336E+000	-2,0544075E-003
31/08/2025 12:31:43.9560	1,734839570283889E+000	-2,2072061E-003
31/08/2025 12:31:48.9560	1,736240554356574E+000	-2,0926071E-003
31/08/2025 12:31:53.9560	1,722445766448971E+000	-2,1881063E-003
31/08/2025 12:31:58.9560	1,717095343828198E+000	-2,1690065E-003
31/08/2025 12:32:03.9560	1,712794217395778E+000	-2,1499067E-003
31/08/2025 12:32:08.9560	1,710650179052344E+000	-2,1308069E-003
31/08/2025 12:32:13.9560	1,700506041479109E+000	-2,1308069E-003
31/08/2025 12:32:18.9560	1,690434654521940E+000	-2,1690065E-003
31/08/2025 12:32:23.9560	1,689860904574388E+000	-2,1308069E-003
31/08/2025 12:32:28.9560	1,679410164141654E+000	-2,2454057E-003
31/08/2025 12:32:33.9560	1,685307274436950E+000	-2,0544075E-003
31/08/2025 12:32:38.9560	1,680828469514845E+000	-2,0162079E-003
31/08/2025 12:32:43.9560	1,673177482438087E+000	-2,1881063E-003
31/08/2025 12:32:48.9560	1,669897483444210E+000	-2,0735073E-003
31/08/2025 12:32:53.9560	1,674414153790474E+000	-2,0544075E-003
31/08/2025 12:32:58.9560	1,659775418233870E+000	-2,1690065E-003
31/08/2025 12:33:03.9560	1,645756415629386E+000	-2,1690065E-003
31/08/2025 12:33:08.9560	1,638775896883004E+000	-2,1690065E-003
31/08/2025 12:33:13.9560	1,633261220550535E+000	-1,9971081E-003
31/08/2025 12:33:18.9560	1,628989722871779E+000	-2,0353077E-003
31/08/2025 12:33:23.9560	1,621436960363388E+000	-2,2072061E-003
31/08/2025 12:33:28.9560	1,625185919165610E+000	-2,0544075E-003
31/08/2025 12:33:33.9560	1,622358488345142E+000	-2,1499067E-003
31/08/2025 12:33:38.9560	1,614537312531471E+000	-2,1499067E-003
31/08/2025 12:33:43.9560	1,608388085460662E+000	-1,9780083E-003
31/08/2025 12:33:48.9560	1,613520537495610E+000	-2,0926071E-003
31/08/2025 12:33:53.9560	1,599910514235495E+000	-2,1308069E-003
31/08/2025 12:33:58.9560	1,597173051095009E+000	-2,1881063E-003
31/08/2025 12:34:03.9560	1,599253647780418E+000	-1,9780083E-003
31/08/2025 12:34:08.9560	1,587882169198990E+000	-2,1308069E-003
31/08/2025 12:34:13.9560	1,586544254779815E+000	-2,1117069E-003
31/08/2025 12:34:18.9560	1,581229673647880E+000	-2,0926071E-003
31/08/2025 12:34:23.9560	1,573616351771353E+000	-2,1499067E-003
31/08/2025 12:34:28.9560	1,572789537191391E+000	-2,1117069E-003
31/08/2025 12:34:33.9560	1,568813320183754E+000	-2,1117069E-003
31/08/2025 12:34:38.9560	1,556986255550381E+000	-2,1690065E-003
31/08/2025 12:34:43.9560	1,554669175171849E+000	-2,1308069E-003
31/08/2025 12:34:48.9560	1,548594202685354E+000	-2,1308069E-003
31/08/2025 12:34:53.9560	1,549595324969292E+000	-2,0353077E-003
31/08/2025 12:34:58.9560	1,539348503303527E+000	-2,0544075E-003
31/08/2025 12:35:03.9560	1,531943799328804E+000	-2,0353077E-003
31/08/2025 12:35:08.9560	1,528039781761169E+000	-2,1690065E-003
31/08/2025 12:35:13.9560	1,523438296556471E+000	-1,9971081E-003
31/08/2025 12:35:18.9560	1,512786058807372E+000	-2,1117069E-003
31/08/2025 12:35:23.9560	1,517694489359855E+000	-2,1690065E-003
31/08/2025 12:35:28.9560	1,510278228092193E+000	-2,1308069E-003
31/08/2025 12:35:33.9560	1,503698696064949E+000	-2,0544075E-003
31/08/2025 12:35:38.9560	1,495468029952049E+000	-2,1881063E-003
31/08/2025 12:35:43.9560	1,496948507905005E+000	-2,0926071E-003
31/08/2025 12:35:48.9560	1,483592779922482E+000	-2,2072061E-003
31/08/2025 12:35:53.9560	1,484484767031669E+000	-2,0926071E-003
31/08/2025 12:35:58.9560	1,488944771480560E+000	-2,1117069E-003
31/08/2025 12:36:03.9560	1,477064614868164E+000	-2,1308069E-003
31/08/2025 12:36:08.9560	1,471606951451301E+000	-2,0926071E-003
31/08/2025 12:36:13.9560	1,458658411931992E+000	-2,1308069E-003
31/08/2025 12:36:18.9560	1,457047429466247E+000	-2,1881063E-003
31/08/2025 12:36:23.9560	1,452832453393936E+000	-2,1117069E-003
31/08/2025 12:36:28.9560	1,456593346619606E+000	-2,0926071E-003
31/08/2025 12:36:33.9560	1,448703793811797E+000	-2,0162079E-003
31/08/2025 12:36:38.9560	1,442225594902038E+000	-2,1690065E-003
31/08/2025 12:36:43.9560	1,433739856553078E+000	-2,1499067E-003
31/08/2025 12:36:48.9560	1,426331000161170E+000	-2,0926071E-003
31/08/2025 12:36:53.9560	1,425572193574904E+000	-2,0544075E-003
31/08/2025 12:36:58.9560	1,417814608335495E+000	-2,0544075E-003
31/08/2025 12:37:03.9560	1,418462162590027E+000	-2,0926071E-003
31/08/2025 12:37:08.9560	1,410511467933654E+000	-2,1308069E-003
31/08/2025 12:37:13.9560	1,405687664818764E+000	-2,1499067E-003
31/08/2025 12:37:18.9560	1,401935742950435E+000	-2,1499067E-003
31/08/2025 12:37:23.9560	1,398456120872495E+000	-2,0544075E-003
31/08/2025 12:37:28.9560	1,388321178102492E+000	-2,1117069E-003
31/08/2025 12:37:33.9560	1,392320798850058E+000	-2,1308069E-003
31/08/2025 12:37:38.9560	1,379453227782246E+000	-2,2072061E-003
31/08/2025 12:37:43.9560	1,385865834283827E+000	-2,1881063E-003
31/08/2025 12:37:48.9560	1,371221022152898E+000	-2,1308069E-003
31/08/2025 12:37:53.9560	1,365189188241958E+000	-2,0926071E-003
31/08/2025 12:37:58.9560	1,365624527144432E+000	-2,1308069E-003
31/08/2025 12:38:03.9560	1,372042421436309E+000	-2,0544075E-003
31/08/2025 12:38:08.9560	1,357389429450034E+000	-2,2836053E-003
31/08/2025 12:38:13.9560	1,358266519165035E+000	-2,1881063E-003
31/08/2025 12:38:18.9560	1,359050994539261E+000	-2,0926071E-003
31/08/2025 12:38:23.9560	1,348894524502750E+000	-2,1690065E-003
31/08/2025 12:38:28.9560	1,348777904796600E+000	-2,1308069E-003
31/08/2025 12:38:33.9560	1,335720731520652E+000	-2,1881063E-003
31/08/2025 12:38:38.9560	1,332294466996193E+000	-2,1881063E-003
31/08/2025 12:38:43.9560	1,335648271298409E+000	-2,1308069E-003
31/08/2025 12:38:48.9560	1,332050564980507E+000	-2,0926071E-003
31/08/2025 12:38:53.9560	1,316476820611954E+000	-2,0926071E-003
31/08/2025 12:38:58.9560	1,316483480834961E+000	-2,1117069E-003
31/08/2025 12:39:03.9560	1,307669770121573E+000	-2,1308069E-003
31/08/2025 12:39:08.9560	1,312706627058979E+000	-2,0544075E-003
31/08/2025 12:39:13.9560	1,304771407866477E+000	-2,1499067E-003
31/08/2025 12:39:18.9560	1,306698292136190E+000	-2,1499067E-003
31/08/2025 12:39:23.9560	1,299521170258522E+000	-2,1881063E-003
31/08/2025 12:39:28.9560	1,289502012896538E+000	-2,2072061E-003
31/08/2025 12:39:33.9560	1,300968138480187E+000	-1,9971081E-003
31/08/2025 12:39:38.9560	1,289325853133199E+000	-2,0926071E-003
31/08/2025 12:39:43.9560	1,281019051957131E+000	-2,0926071E-003
31/08/2025 12:39:48.9560	1,282196722483633E+000	-2,0735073E-003
31/08/2025 12:39:53.9560	1,272190788745879E+000	-2,0162079E-003
31/08/2025 12:39:58.9560	1,270014795470235E+000	-2,1499067E-003
31/08/2025 12:40:03.9560	1,263951152992249E+000	-2,1690065E-003
31/08/2025 12:40:08.9560	1,258551753354070E+000	-2,0735073E-003
31/08/2025 12:40:13.9560	1,265372041559219E+000	-2,1117069E-003
31/08/2025 12:40:18.9560	1,255575061964989E+000	-2,1308069E-003
31/08/2025 12:40:23.9560	1,248639234185218E+000	-2,2454057E-003
31/08/2025 12:40:28.9560	1,252633489847181E+000	-2,1308069E-003
31/08/2025 12:40:33.9560	1,242163519215584E+000	-2,0353077E-003
31/08/2025 12:40:38.9560	1,237705269813535E+000	-2,1117069E-003
31/08/2025 12:40:43.9560	1,233466971874237E+000	-2,2072061E-003
31/08/2025 12:40:48.9560	1,227619900441169E+000	-2,1499067E-003
31/08/2025 12:40:53.9560	1,230386340212821E+000	-2,0735073E-003
31/08/2025 12:40:58.9560	1,229724506258965E+000	-2,1690065E-003
31/08/2025 12:41:03.9560	1,216276289939880E+000	-2,0544075E-003
31/08/2025 12:41:08.9560	1,217023707652091E+000	-2,1308069E-003
31/08/2025 12:41:13.9560	1,205068151330945E+000	-2,1881063E-003
31/08/2025 12:41:18.9560	1,211181270885468E+000	-1,9971081E-003
31/08/2025 12:41:23.9560	1,207781882452965E+000	-2,2263059E-003
31/08/2025 12:41:28.9560	1,196637297463415E+000	-2,1308069E-003
31/08/2025 12:41:33.9560	1,197773093795776E+000	-2,1690065E-003
31/08/2025 12:41:38.9560	1,190885463452336E+000	-2,1690065E-003
31/08/2025 12:41:43.9560	1,188716771054268E+000	-2,1690065E-003
31/08/2025 12:41:48.9560	1,188874992489811E+000	-2,1690065E-003
31/08/2025 12:41:53.9560	1,186157846021651E+000	-2,0162079E-003
31/08/2025 12:41:58.9560	1,178365487647055E+000	-2,1881063E-003
31/08/2025 12:42:03.9560	1,169794054341317E+000	-2,1881063E-003
31/08/2025 12:42:08.9560	1,173030164146422E+000	-2,1499067E-003
31/08/2025 12:42:13.9560	1,170445482397078E+000	-1,9589085E-003
31/08/2025 12:42:18.9560	1,169200019741059E+000	-2,0926071E-003
31/08/2025 12:42:23.9560	1,165497421002388E+000	-2,0735073E-003
31/08/2025 12:42:28.9560	1,157135333228112E+000	-2,1499067E-003
31/08/2025 12:42:33.9560	1,155169106245040E+000	-2,1117069E-003
31/08/2025 12:42:38.9560	1,150327842593189E+000	-2,1881063E-003
31/08/2025 12:42:43.9560	1,149841876912117E+000	-2,0544075E-003
31/08/2025 12:42:48.9560	1,141446217942238E+000	-2,1308069E-003
31/08/2025 12:42:53.9560	1,130159282588957E+000	-2,1499067E-003
31/08/2025 12:42:58.9560	1,138125622963905E+000	-2,0926071E-003
31/08/2025 12:43:03.9560	1,133759612011910E+000	-2,1881063E-003
31/08/2025 12:43:08.9560	1,132000876927375E+000	-1,9971081E-003
31/08/2025 12:43:13.9560	1,130955691289901E+000	-2,2072061E-003
31/08/2025 12:43:18.9560	1,127833381342887E+000	-2,2072061E-003
31/08/2025 12:43:23.9560	1,121605187034605E+000	-2,0735073E-003
31/08/2025 12:43:28.9560	1,115120621848106E+000	-2,1690065E-003
31/08/2025 12:43:33.9560	1,113714776086805E+000	-2,0926071E-003
31/08/2025 12:43:38.9560	1,103795666003226E+000	-2,2072061E-003
31/08/2025 12:43:43.9560	1,104349983763694E+000	-2,1690065E-003
31/08/2025 12:43:48.9560	1,099153796315189E+000	-2,1117069E-003
31/08/2025 12:43:53.9560	1,090036590552330E+000	-2,1690065E-003
31/08/2025 12:43:58.9560	1,082664036917684E+000	-2,1117069E-003
31/08/2025 12:44:03.9560	1,088077876996994E+000	-2,0162079E-003
31/08/2025 12:44:08.9560	1,083925995707510E+000	-2,1308069E-003
31/08/2025 12:44:13.9560	1,087429976463318E+000	-2,1308069E-003
31/08/2025 12:44:18.9560	1,080454821276664E+000	-2,0162079E-003
31/08/2025 12:44:23.9560	1,082756139659882E+000	-2,1117069E-003
31/08/2025 12:44:28.9560	1,075563473486898E+000	-2,1308069E-003
31/08/2025 12:44:33.9560	1,074438899302482E+000	-2,2454057E-003
31/08/2025 12:44:38.9560	1,065044079732893E+000	-2,0926071E-003
31/08/2025 12:44:43.9560	1,065753427958487E+000	-2,1308069E-003
31/08/2025 12:44:48.9560	1,064739502358435E+000	-2,1499067E-003
31/08/2025 12:44:53.9560	1,061968327927589E+000	-2,1117069E-003
31/08/2025 12:44:58.9560	1,061580754518509E+000	-2,2263059E-003
31/08/2025 12:45:03.9560	1,053605403184889E+000	-2,0926071E-003
31/08/2025 12:45:08.9560	1,063321071457864E+000	-2,1881063E-003
31/08/2025 12:45:13.9560	1,052591083168983E+000	-2,0735073E-003
31/08/2025 12:45:18.9560	1,054535959315301E+000	-2,3027051E-003
31/08/2025 12:45:23.9560	1,051215090537067E+000	-2,1117069E-003
31/08/2025 12:45:28.9560	1,050817750811575E+000	-2,1117069E-003
31/08/2025 12:45:33.9560	1,036993937277792E+000	-2,1308069E-003
31/08/2025 12:45:38.9560	1,036314593386650E+000	-2,1690065E-003
31/08/2025 12:45:43.9560	1,030455595397949E+000	-2,0926071E-003
31/08/2025 12:45:48.9560	1,035120929622650E+000	-2,1499067E-003
31/08/2025 12:45:53.9560	1,030895356273651E+000	-2,1308069E-003
31/08/2025 12:45:58.9560	1,028325206518173E+000	-2,1499067E-003
31/08/2025 12:46:03.9560	1,024828215265273E+000	-2,1690065E-003
31/08/2025 12:46:08.9560	1,020554585564135E+000	-2,0735073E-003
31/08/2025 12:46:13.9560	1,020227054679394E+000	-2,1117069E-003
31/08/2025 12:46:18.9560	1,014080803430076E+000	-2,1499067E-003
31/08/2025 12:46:23.9560	1,013243320524692E+000	-2,1881063E-003
31/08/2025 12:46:28.9560	1,009654399693012E+000	-2,1308069E-003
31/08/2025 12:46:33.9560	1,011308066964149E+000	-1,9780083E-003
31/08/2025 12:46:38.9560	1,014445909774302E+000	-2,1308069E-003
31/08/2025 12:46:43.9560	1,005863952255247E+000	-2,1117069E-003
31/08/2025 12:46:48.9560	9,988557304620720E-001	-2,1499067E-003
31/08/2025 12:46:53.9560	9,913909837722734E-001	-2,0735073E-003
31/08/2025 12:46:58.9560	9,807581701517094E-001	-2,1881063E-003
31/08/2025 12:47:03.9560	9,856586350679395E-001	-2,1881063E-003
31/08/2025 12:47:08.9560	9,843343967676148E-001	-2,2072061E-003
31/08/2025 12:47:13.9560	9,824106292009347E-001	-2,1308069E-003
31/08/2025 12:47:17.9082	9,717191522723860E-001	-2,1308069E-003