File: data/phase_2a/Sergey/2/20.7/02 polarisation/SN50_C6aD1E1_hr 0,1MFeCN6_in_1M_KCl_3306mL_symmetric_balanced_4_point_PEIS_10mHz_200kHz_10mV_01_02_CP_C16.txt
time/s	I/mA	<Ewe/V>
31/08/2025 10:23:17.7940	6,0685435E-003	-6,7374390E-003
31/08/2025 10:23:20.0940	6,7049102E-003	-6,7125098E-003
31/08/2025 10:23:22.3940	4,7958097E-003	-6,7162914E-003
31/08/2025 10:23:24.6940	6,7049102E-003	-6,7167496E-003
31/08/2025 10:23:26.9940	4,1594426E-003	-6,7164828E-003
31/08/2025 10:23:29.2940	5,4321769E-003	-6,7133117E-003
31/08/2025 10:23:31.5940	4,1594426E-003	-6,7177811E-003
31/08/2025 10:23:33.8940	4,7958097E-003	-6,7240079E-003
31/08/2025 10:23:36.1940	1,6139771E-003	-6,7207608E-003
31/08/2025 10:23:38.4940	7,3412773E-003	-6,7130830E-003
31/08/2025 10:23:40.7940	7,3412773E-003	-6,7200353E-003
31/08/2025 10:23:43.0940	1,1795843E-002	-6,7202644E-003
31/08/2025 10:23:45.3940	9,2503773E-003	-6,7169410E-003
31/08/2025 10:23:47.6940	6,0685435E-003	-6,7218305E-003
31/08/2025 10:23:49.9940	7,3412773E-003	-6,7184307E-003
31/08/2025 10:23:52.2940	2,2503431E-003	-6,7204172E-003
31/08/2025 10:23:54.5940	5,4321769E-003	-6,7177047E-003
31/08/2025 10:23:56.8940	4,7958097E-003	-6,7171319E-003
31/08/2025 10:23:59.1940	1,1795843E-002	-6,7178961E-003
31/08/2025 10:24:01.4940	3,5230771E-003	-6,7154896E-003
31/08/2025 10:24:03.7940	6,7049102E-003	-6,7252303E-003
31/08/2025 10:24:06.0940	4,7958097E-003	-6,7183925E-003
31/08/2025 10:24:08.3940	9,2503773E-003	-6,7171319E-003
31/08/2025 10:24:10.6940	-9,3149021E-004	-6,7177811E-003
31/08/2025 10:24:12.9940	7,9776440E-003	-6,7187743E-003
31/08/2025 10:24:15.2940	2,2503431E-003	-6,7158332E-003
31/08/2025 10:24:17.5940	2,2503431E-003	-6,7121661E-003
31/08/2025 10:24:19.8940	1,1159477E-002	-6,7216009E-003
31/08/2025 10:24:22.1940	1,1159477E-002	-6,7161387E-003
31/08/2025 10:24:24.4940	1,1159477E-002	-6,7156800E-003
31/08/2025 10:24:26.7940	6,0685435E-003	-6,7219837E-003
31/08/2025 10:24:29.0940	8,6140092E-003	-6,7138467E-003
31/08/2025 10:24:31.3940	1,1795843E-002	-6,7197294E-003
31/08/2025 10:24:33.6940	9,2503773E-003	-6,7219068E-003
31/08/2025 10:24:35.9940	7,9776440E-003	-6,7234351E-003
31/08/2025 10:24:38.2940	7,3412773E-003	-6,7170174E-003
31/08/2025 10:24:40.5940	7,9776440E-003	-6,7191562E-003
31/08/2025 10:24:42.8940	8,6140092E-003	-6,7172083E-003
31/08/2025 10:24:45.1940	7,9776440E-003	-6,7173992E-003
31/08/2025 10:24:47.4940	8,6140092E-003	-6,7132353E-003
31/08/2025 10:24:49.7940	1,4341311E-002	-6,7187361E-003
31/08/2025 10:24:52.0940	1,4977678E-002	-6,7155277E-003
31/08/2025 10:24:54.3940	7,9776440E-003	-6,7210668E-003
31/08/2025 10:24:56.6940	6,0685435E-003	-6,7213341E-003
31/08/2025 10:24:58.9940	2,8867100E-003	-6,7175524E-003
31/08/2025 10:25:01.2940	8,6140092E-003	-6,7229001E-003
31/08/2025 10:25:03.5940	1,6250411E-002	-6,7245048E-003
31/08/2025 10:25:05.8940	8,6140092E-003	-6,7159096E-003
31/08/2025 10:25:08.1940	6,7049102E-003	-6,7182779E-003
31/08/2025 10:25:10.4940	7,9776440E-003	-6,7204554E-003
31/08/2025 10:25:12.7940	4,7958097E-003	-6,7189657E-003
31/08/2025 10:25:15.0940	6,7049102E-003	-6,7158332E-003
31/08/2025 10:25:17.3940	9,2503773E-003	-6,7197294E-003
31/08/2025 10:25:19.6940	7,3412773E-003	-6,7206081E-003
31/08/2025 10:25:21.9940	4,1594426E-003	-6,7152218E-003
31/08/2025 10:25:24.2940	5,4321769E-003	-6,7204935E-003
31/08/2025 10:25:26.5940	8,6140092E-003	-6,7189275E-003
31/08/2025 10:25:28.8940	1,0523110E-002	-6,7225941E-003
31/08/2025 10:25:31.1940	6,0685435E-003	-6,7162532E-003
31/08/2025 10:25:33.4940	2,8867100E-003	-6,7139231E-003
31/08/2025 10:25:35.7940	9,8867435E-003	-6,7136176E-003
31/08/2025 10:25:38.0940	7,9776440E-003	-6,7131971E-003
31/08/2025 10:25:40.3940	-2,9512335E-004	-6,7183161E-003
31/08/2025 10:25:42.6940	-2,2042233E-003	-6,7198826E-003
31/08/2025 10:25:44.9940	9,7761012E-004	-6,7105233E-003
31/08/2025 10:25:47.2940	9,7761012E-004	-6,7189657E-003
31/08/2025 10:25:49.5940	1,0523110E-002	-6,7199590E-003
31/08/2025 10:25:51.8940	3,5230771E-003	-6,7173992E-003
31/08/2025 10:25:54.1940	4,7958097E-003	-6,7141526E-003
31/08/2025 10:25:56.4940	5,4321769E-003	-6,7143817E-003
31/08/2025 10:25:58.7940	5,4321769E-003	-6,7172847E-003
31/08/2025 10:26:01.0940	7,3412773E-003	-6,7169410E-003
31/08/2025 10:26:03.3940	8,6140092E-003	-6,7161387E-003
31/08/2025 10:26:05.6940	1,1159477E-002	-6,7137703E-003
31/08/2025 10:26:07.9940	1,0523110E-002	-6,7178961E-003
31/08/2025 10:26:10.2940	7,3412773E-003	-6,7144581E-003
31/08/2025 10:26:12.5940	1,1159477E-002	-6,7224419E-003
31/08/2025 10:26:14.8940	-2,9512335E-004	-6,7145727E-003
31/08/2025 10:26:17.1940	1,2432210E-002	-6,7183161E-003
31/08/2025 10:26:19.4940	9,8867435E-003	-6,7183161E-003
31/08/2025 10:26:21.7940	8,6140092E-003	-6,7222887E-003
31/08/2025 10:26:24.0940	1,2432210E-002	-6,7113256E-003
31/08/2025 10:26:26.3940	2,2503431E-003	-6,7243902E-003
31/08/2025 10:26:28.6940	1,0523110E-002	-6,7166351E-003
31/08/2025 10:26:30.9940	2,2503431E-003	-6,7172847E-003
31/08/2025 10:26:33.2940	1,2432210E-002	-6,7220600E-003
31/08/2025 10:26:35.5940	4,7958097E-003	-6,7225182E-003
31/08/2025 10:26:37.8940	1,2432210E-002	-6,7111729E-003
31/08/2025 10:26:40.1940	8,6140092E-003	-6,7193476E-003
31/08/2025 10:26:42.4940	8,6140092E-003	-6,7206463E-003
31/08/2025 10:26:44.7940	7,9776440E-003	-6,7202258E-003
31/08/2025 10:26:47.0940	7,9776440E-003	-6,7182779E-003
31/08/2025 10:26:49.3940	6,7049102E-003	-6,7167883E-003
31/08/2025 10:26:51.6940	9,8867435E-003	-6,7177811E-003
31/08/2025 10:26:53.9940	1,0523110E-002	-6,7171319E-003
31/08/2025 10:26:56.2940	3,5230771E-003	-6,7250389E-003
31/08/2025 10:26:58.5940	1,0523110E-002	-6,7207608E-003
31/08/2025 10:27:00.8940	1,0523110E-002	-6,7167496E-003
31/08/2025 10:27:03.1940	6,0685435E-003	-6,7248484E-003
31/08/2025 10:27:05.4940	4,1594426E-003	-6,7238552E-003
31/08/2025 10:27:07.7940	9,8867435E-003	-6,7175142E-003
31/08/2025 10:27:10.0940	6,0685435E-003	-6,7194621E-003
31/08/2025 10:27:12.3940	7,9776440E-003	-6,7225182E-003
31/08/2025 10:27:14.6940	5,4321769E-003	-6,7179725E-003
31/08/2025 10:27:16.9940	4,1594426E-003	-6,7221741E-003
31/08/2025 10:27:19.2940	7,9776440E-003	-6,7182779E-003
31/08/2025 10:27:21.5940	7,9776440E-003	-6,7213341E-003
31/08/2025 10:27:23.8940	4,1594426E-003	-6,7147636E-003
31/08/2025 10:27:26.1940	1,1159477E-002	-6,7183925E-003
31/08/2025 10:27:28.4940	6,7049102E-003	-6,7231674E-003
31/08/2025 10:27:30.7940	1,3068578E-002	-6,7200353E-003
31/08/2025 10:27:33.0940	3,5230771E-003	-6,7196148E-003
31/08/2025 10:27:35.3940	9,2503773E-003	-6,7214868E-003
31/08/2025 10:27:37.6940	9,8867435E-003	-6,7101414E-003
31/08/2025 10:27:39.9940	8,6140092E-003	-6,7191562E-003
31/08/2025 10:27:42.2940	5,4321769E-003	-6,7183161E-003
31/08/2025 10:27:44.5940	6,0685435E-003	-6,7188893E-003
31/08/2025 10:27:46.8940	1,2432210E-002	-6,7149163E-003
31/08/2025 10:27:49.1940	5,4321769E-003	-6,7205317E-003
31/08/2025 10:27:51.4940	6,0685435E-003	-6,7150309E-003
31/08/2025 10:27:53.7940	7,9776440E-003	-6,7226710E-003
31/08/2025 10:27:56.0940	8,6140092E-003	-6,7207608E-003
31/08/2025 10:27:58.3940	7,9776440E-003	-6,7196530E-003
31/08/2025 10:28:00.6940	1,3068578E-002	-6,7165974E-003
31/08/2025 10:28:02.9940	3,5230771E-003	-6,7254980E-003
31/08/2025 10:28:05.2940	9,7761012E-004	-6,7253830E-003
31/08/2025 10:28:07.5940	6,0685435E-003	-6,7186216E-003
31/08/2025 10:28:09.8940	1,0523110E-002	-6,7235115E-003
31/08/2025 10:28:12.1940	9,8867435E-003	-6,7214868E-003
31/08/2025 10:28:14.4940	9,2503773E-003	-6,7185457E-003
31/08/2025 10:28:16.7940	7,3412773E-003	-6,7180106E-003
31/08/2025 10:28:19.0940	4,1594426E-003	-6,7212190E-003
31/08/2025 10:28:21.3940	9,2503773E-003	-6,7235115E-003
31/08/2025 10:28:23.6940	8,6140092E-003	-6,7188893E-003
31/08/2025 10:28:25.9940	6,0685435E-003	-6,7222123E-003
31/08/2025 10:28:28.2940	8,6140092E-003	-6,7208754E-003
31/08/2025 10:28:30.5940	1,4341311E-002	-6,7219837E-003
31/08/2025 10:28:32.8940	7,9776440E-003	-6,7222505E-003
31/08/2025 10:28:35.1940	9,2503773E-003	-6,7301579E-003
31/08/2025 10:28:37.4940	9,2503773E-003	-6,7232437E-003
31/08/2025 10:28:39.7940	3,5230771E-003	-6,7242370E-003
31/08/2025 10:28:42.0940	2,2503431E-003	-6,7190421E-003
31/08/2025 10:28:44.3940	4,1594426E-003	-6,7215250E-003
31/08/2025 10:28:46.6940	4,1594426E-003	-6,7262999E-003
31/08/2025 10:28:48.9940	4,1594426E-003	-6,7301197E-003
31/08/2025 10:28:51.2940	3,5230771E-003	-6,7230151E-003
31/08/2025 10:28:53.5940	9,8867435E-003	-6,7211427E-003
31/08/2025 10:28:55.8940	8,6140092E-003	-6,7242752E-003
31/08/2025 10:28:58.1940	9,8867435E-003	-6,7265290E-003
31/08/2025 10:29:00.4940	4,7958097E-003	-6,7267199E-003
31/08/2025 10:29:02.7940	1,1159477E-002	-6,7257653E-003
31/08/2025 10:29:05.0940	7,3412773E-003	-6,7272549E-003
31/08/2025 10:29:07.3940	7,9776440E-003	-6,7318389E-003
31/08/2025 10:29:09.6940	9,2503773E-003	-6,7241224E-003
31/08/2025 10:29:11.9940	1,0523110E-002	-6,7265672E-003
31/08/2025 10:29:14.2940	7,3412773E-003	-6,7269495E-003
31/08/2025 10:29:16.5940	1,0523110E-002	-6,7223273E-003
31/08/2025 10:29:18.8940	5,4321769E-003	-6,7199208E-003
31/08/2025 10:29:21.1940	7,9776440E-003	-6,7235874E-003
31/08/2025 10:29:23.4940	1,3068578E-002	-6,7267199E-003
31/08/2025 10:29:25.7940	4,7958097E-003	-6,7277895E-003
31/08/2025 10:29:28.0940	5,4321769E-003	-6,7249630E-003
31/08/2025 10:29:30.3940	4,1594426E-003	-6,7259180E-003
31/08/2025 10:29:32.6940	6,0685435E-003	-6,7266435E-003
31/08/2025 10:29:34.9940	9,2503773E-003	-6,7321444E-003
31/08/2025 10:29:37.2940	9,8867435E-003	-6,7293560E-003
31/08/2025 10:29:39.5940	1,0523110E-002	-6,7231292E-003
31/08/2025 10:29:41.8940	7,3412773E-003	-6,7282864E-003
31/08/2025 10:29:44.1940	4,7958097E-003	-6,7263762E-003
31/08/2025 10:29:46.4940	7,3412773E-003	-6,7308838E-003
31/08/2025 10:29:48.7940	6,0685435E-003	-6,7271399E-003
31/08/2025 10:29:51.0940	9,2503773E-003	-6,7255739E-003
31/08/2025 10:29:53.3940	4,7958097E-003	-6,7278277E-003
31/08/2025 10:29:55.6940	7,3412773E-003	-6,7223655E-003
31/08/2025 10:29:57.9940	4,1594426E-003	-6,7348569E-003
31/08/2025 10:30:00.2940	6,7049102E-003	-6,7253830E-003
31/08/2025 10:30:02.5940	1,6250411E-002	-6,7259944E-003
31/08/2025 10:30:04.8940	1,0523110E-002	-6,7275222E-003
31/08/2025 10:30:07.1940	4,1594426E-003	-6,7269113E-003
31/08/2025 10:30:09.4940	-3,4769569E-003	-6,7276368E-003
31/08/2025 10:30:11.7940	1,3704944E-002	-6,7232437E-003
31/08/2025 10:30:14.0940	7,3412773E-003	-6,7264144E-003
31/08/2025 10:30:16.3940	1,0523110E-002	-6,7282100E-003
31/08/2025 10:30:18.6940	7,9776440E-003	-6,7298524E-003
31/08/2025 10:30:20.9940	9,8867435E-003	-6,7256121E-003
31/08/2025 10:30:23.2940	1,0523110E-002	-6,7280950E-003
31/08/2025 10:30:25.5940	1,1159477E-002	-6,7276368E-003
31/08/2025 10:30:27.8940	8,6140092E-003	-6,7258799E-003
31/08/2025 10:30:30.1940	9,8867435E-003	-6,7354678E-003
31/08/2025 10:30:32.4940	5,4321769E-003	-6,7282482E-003
31/08/2025 10:30:34.7940	4,1594426E-003	-6,7209522E-003
31/08/2025 10:30:37.0940	7,3412773E-003	-6,7251921E-003
31/08/2025 10:30:39.3940	7,9776440E-003	-6,7388294E-003
31/08/2025 10:30:41.6940	1,3068578E-002	-6,7296997E-003
31/08/2025 10:30:43.9940	4,7958097E-003	-6,7318771E-003
31/08/2025 10:30:46.2940	4,7958097E-003	-6,7271786E-003
31/08/2025 10:30:48.5940	7,3412773E-003	-6,7302729E-003
31/08/2025 10:30:50.8940	9,2503773E-003	-6,7283246E-003
31/08/2025 10:30:53.1940	7,3412773E-003	-6,7314189E-003
31/08/2025 10:30:55.4940	1,0523110E-002	-6,7260703E-003
31/08/2025 10:30:57.7940	1,0523110E-002	-6,7284768E-003
31/08/2025 10:31:00.0940	1,3704944E-002	-6,7315330E-003
31/08/2025 10:31:02.3940	9,8867435E-003	-6,7283246E-003
31/08/2025 10:31:04.6940	1,1795843E-002	-6,7242370E-003
31/08/2025 10:31:06.9940	1,3704944E-002	-6,7256121E-003
31/08/2025 10:31:09.2940	4,7958097E-003	-6,7315712E-003
31/08/2025 10:31:11.5940	5,4321769E-003	-6,7267581E-003
31/08/2025 10:31:13.8940	9,2503773E-003	-6,7266054E-003
31/08/2025 10:31:16.1940	9,2503773E-003	-6,7323353E-003
31/08/2025 10:31:18.4940	-9,3149021E-004	-6,7306166E-003
31/08/2025 10:31:20.7940	2,2503431E-003	-6,7296233E-003
31/08/2025 10:31:23.0940	9,8867435E-003	-6,7338254E-003
31/08/2025 10:31:25.3940	3,5230771E-003	-6,7288978E-003
31/08/2025 10:31:27.6940	4,7958097E-003	-6,7339018E-003
31/08/2025 10:31:29.9940	5,4321769E-003	-6,7295851E-003
31/08/2025 10:31:32.2940	3,5230771E-003	-6,7306929E-003
31/08/2025 10:31:34.5940	9,8867435E-003	-6,7248484E-003
31/08/2025 10:31:36.8940	9,7761012E-004	-6,7294701E-003
31/08/2025 10:31:39.1940	6,7049102E-003	-6,7282864E-003
31/08/2025 10:31:41.4940	5,4321769E-003	-6,7261090E-003
31/08/2025 10:31:43.7940	6,7049102E-003	-6,7314948E-003
31/08/2025 10:31:46.0940	4,7958097E-003	-6,7298142E-003
31/08/2025 10:31:48.3940	-2,9512335E-004	-6,7311130E-003
31/08/2025 10:31:50.6940	6,7049102E-003	-6,7254598E-003
31/08/2025 10:31:52.9940	9,7761012E-004	-6,7283246E-003
31/08/2025 10:31:55.2940	4,1594426E-003	-6,7251157E-003
31/08/2025 10:31:57.5940	-2,8405902E-003	-6,7248102E-003
31/08/2025 10:31:59.8940	9,2503773E-003	-6,7285919E-003
31/08/2025 10:32:02.1940	1,4341311E-002	-6,7284768E-003
31/08/2025 10:32:04.4940	-2,9512335E-004	-6,7241988E-003
31/08/2025 10:32:06.7940	1,6139771E-003	-6,7282864E-003
31/08/2025 10:32:09.0940	4,7958097E-003	-6,7303875E-003
31/08/2025 10:32:11.3940	4,7958097E-003	-6,7269113E-003
31/08/2025 10:32:13.6940	4,1594426E-003	-6,7313807E-003
31/08/2025 10:32:15.9940	3,5230771E-003	-6,7305015E-003
31/08/2025 10:32:18.2940	7,9776440E-003	-6,7300433E-003
31/08/2025 10:32:20.5940	3,5230771E-003	-6,7232056E-003
31/08/2025 10:32:22.8940	1,5614044E-002	-6,7280568E-003
31/08/2025 10:32:25.1940	4,7958097E-003	-6,7268731E-003
31/08/2025 10:32:27.4940	4,7958097E-003	-6,7319153E-003
31/08/2025 10:32:29.7940	9,8867435E-003	-6,7273313E-003
31/08/2025 10:32:32.0940	1,0523110E-002	-6,7272931E-003
31/08/2025 10:32:34.3940	1,0523110E-002	-6,7316480E-003
31/08/2025 10:32:36.6940	1,1159477E-002	-6,7282864E-003
31/08/2025 10:32:38.9940	1,0523110E-002	-6,7351623E-003
31/08/2025 10:32:41.2940	9,2503773E-003	-6,7238170E-003
31/08/2025 10:32:43.5940	7,9776440E-003	-6,7244284E-003
31/08/2025 10:32:45.8940	7,3412773E-003	-6,7315330E-003
31/08/2025 10:32:48.1940	2,8867100E-003	-6,7259180E-003
31/08/2025 10:32:50.4940	9,8867435E-003	-6,7312657E-003
31/08/2025 10:32:52.7940	1,1795843E-002	-6,7347805E-003
31/08/2025 10:32:55.0940	1,6139771E-003	-6,7296615E-003
31/08/2025 10:32:57.3940	9,2503773E-003	-6,7292415E-003
31/08/2025 10:32:59.6940	2,2503431E-003	-6,7306929E-003
31/08/2025 10:33:01.9940	8,6140092E-003	-6,7305779E-003
31/08/2025 10:33:04.2940	1,1159477E-002	-6,7312275E-003
31/08/2025 10:33:06.5940	6,7049102E-003	-6,7325262E-003
31/08/2025 10:33:08.8940	6,7049102E-003	-6,7316862E-003
31/08/2025 10:33:11.1940	6,7049102E-003	-6,7299670E-003
31/08/2025 10:33:13.4940	9,2503773E-003	-6,7310748E-003
31/08/2025 10:33:15.7940	1,6139771E-003	-6,7318771E-003
31/08/2025 10:33:18.0466	2,6502468E+001	2,6863967E-003
31/08/2025 10:33:20.3466	2,6506924E+001	4,9341014E-003
31/08/2025 10:33:22.6466	2,6515194E+001	5,9365747E-003
31/08/2025 10:33:24.9466	2,6510742E+001	6,5080794E-003
31/08/2025 10:33:27.2466	2,6509470E+001	6,8522198E-003
31/08/2025 10:33:29.5466	2,6510742E+001	7,0637311E-003
31/08/2025 10:33:31.8466	2,6505650E+001	7,1985759E-003
31/08/2025 10:33:34.1466	2,6505650E+001	7,2905608E-003
31/08/2025 10:33:36.4466	2,6508831E+001	7,3416717E-003
31/08/2025 10:33:38.7466	2,6505014E+001	7,3847608E-003
31/08/2025 10:33:41.0466	2,6517740E+001	7,4007665E-003
31/08/2025 10:33:43.3466	2,6510742E+001	7,4130287E-003
31/08/2025 10:33:45.6466	2,6506924E+001	7,4265134E-003
31/08/2025 10:33:47.9466	2,6510105E+001	7,4354904E-003
31/08/2025 10:33:50.2466	2,6505014E+001	7,4496623E-003
31/08/2025 10:33:52.5466	2,6515194E+001	7,4764402E-003
31/08/2025 10:33:54.8466	2,6507559E+001	7,4924072E-003
31/08/2025 10:33:57.1466	2,6511377E+001	7,5111631E-003
31/08/2025 10:33:59.4466	2,6508196E+001	7,5270543E-003
31/08/2025 10:34:01.7466	2,6512012E+001	7,5412649E-003
31/08/2025 10:34:04.0466	2,6502468E+001	7,5639556E-003
31/08/2025 10:34:06.3466	2,6507559E+001	7,5790063E-003
31/08/2025 10:34:08.6466	2,6508831E+001	7,6010092E-003
31/08/2025 10:34:10.9466	2,6505650E+001	7,6151812E-003
31/08/2025 10:34:13.2466	2,6506285E+001	7,6324474E-003
31/08/2025 10:34:15.5466	2,6506924E+001	7,6549086E-003
31/08/2025 10:34:17.8466	2,6508196E+001	7,6768352E-003
31/08/2025 10:34:20.1466	2,6503742E+001	7,6945983E-003
31/08/2025 10:34:22.4466	2,6512012E+001	7,7179000E-003
31/08/2025 10:34:24.7466	2,6505650E+001	7,7322251E-003
31/08/2025 10:34:27.0466	2,6511377E+001	7,7569401E-003
31/08/2025 10:34:29.3466	2,6508196E+001	7,7730604E-003
31/08/2025 10:34:31.6466	2,6511377E+001	7,7918163E-003
31/08/2025 10:34:33.9466	2,6509470E+001	7,8132842E-003
31/08/2025 10:34:36.2466	2,6506285E+001	7,8239040E-003
31/08/2025 10:34:38.5466	2,6507559E+001	7,8517133E-003
31/08/2025 10:34:40.8466	2,6513922E+001	7,8797136E-003
31/08/2025 10:34:43.1466	2,6511377E+001	7,8951465E-003
31/08/2025 10:34:45.4466	2,6505650E+001	7,9066828E-003
31/08/2025 10:34:47.7466	2,6506924E+001	7,9365168E-003
31/08/2025 10:34:50.0466	2,6510742E+001	7,9487786E-003
31/08/2025 10:34:52.3466	2,6504377E+001	7,9761297E-003
31/08/2025 10:34:54.6466	2,6510742E+001	7,9936637E-003
31/08/2025 10:34:56.9466	2,6507559E+001	8,0094775E-003
31/08/2025 10:34:59.2466	2,6505650E+001	8,0345757E-003
31/08/2025 10:35:01.5466	2,6511377E+001	8,0452329E-003
31/08/2025 10:35:03.8466	2,6508196E+001	8,0736149E-003
31/08/2025 10:35:06.1466	2,6518379E+001	8,0932882E-003
31/08/2025 10:35:08.4466	2,6510105E+001	8,1087966E-003
31/08/2025 10:35:10.7466	2,6512012E+001	8,1422599E-003
31/08/2025 10:35:13.0466	2,6507559E+001	8,1447810E-003
31/08/2025 10:35:15.3466	2,6508831E+001	8,1666317E-003
31/08/2025 10:35:17.6466	2,6508196E+001	8,1971530E-003
31/08/2025 10:35:19.8468	6,0685435E-003	-3,1494002E-003
31/08/2025 10:35:22.1468	1,0523110E-002	-4,2731576E-003
31/08/2025 10:35:24.4468	1,1159477E-002	-4,8953146E-003
31/08/2025 10:35:26.7468	1,4341311E-002	-5,2499985E-003
31/08/2025 10:35:29.0468	1,1159477E-002	-5,4744217E-003
31/08/2025 10:35:31.3468	9,2503773E-003	-5,6081200E-003
31/08/2025 10:35:33.6468	6,0685435E-003	-5,6878049E-003
31/08/2025 10:35:35.9468	9,2503773E-003	-5,7246289E-003
31/08/2025 10:35:38.2468	6,0685435E-003	-5,7339496E-003
31/08/2025 10:35:40.5468	6,0685435E-003	-5,7412838E-003
31/08/2025 10:35:42.8468	2,2503431E-003	-5,7523237E-003
31/08/2025 10:35:45.1468	7,3412773E-003	-5,7426593E-003
31/08/2025 10:35:47.4468	3,4124311E-004	-5,7345228E-003
31/08/2025 10:35:49.7468	9,8867435E-003	-5,7287929E-003
31/08/2025 10:35:52.0468	3,5230771E-003	-5,7248967E-003
31/08/2025 10:35:54.3468	2,8867100E-003	-5,7222224E-003
31/08/2025 10:35:56.6468	6,7049102E-003	-5,7177530E-003
31/08/2025 10:35:58.9468	7,3412773E-003	-5,7222224E-003
31/08/2025 10:36:01.2468	1,2432210E-002	-5,7132835E-003
31/08/2025 10:36:03.5468	9,7761012E-004	-5,7166833E-003
31/08/2025 10:36:05.8468	5,4321769E-003	-5,7132835E-003
31/08/2025 10:36:08.1468	1,2432210E-002	-5,7163015E-003
31/08/2025 10:36:10.4468	7,3412773E-003	-5,7137036E-003
31/08/2025 10:36:12.7468	4,1594426E-003	-5,7112970E-003
31/08/2025 10:36:15.0468	2,2503431E-003	-5,7143914E-003
31/08/2025 10:36:17.3468	6,0685435E-003	-5,7159197E-003
31/08/2025 10:36:19.6468	1,2432210E-002	-5,7120235E-003
31/08/2025 10:36:21.9468	1,9432243E-002	-5,7091960E-003
31/08/2025 10:36:24.2468	9,2503773E-003	-5,7062930E-003
31/08/2025 10:36:26.5468	1,0523110E-002	-5,7179444E-003
31/08/2025 10:36:28.8468	-1,5678566E-003	-5,7186699E-003
31/08/2025 10:36:31.1468	6,0685435E-003	-5,7155755E-003
31/08/2025 10:36:33.4468	1,3068578E-002	-5,7135890E-003
31/08/2025 10:36:35.7468	4,1594426E-003	-5,7141623E-003
31/08/2025 10:36:38.0468	4,7958097E-003	-5,7143914E-003
31/08/2025 10:36:40.3468	5,4321769E-003	-5,7140472E-003
31/08/2025 10:36:42.6468	9,8867435E-003	-5,7153464E-003
31/08/2025 10:36:44.9468	1,4341311E-002	-5,7127872E-003
31/08/2025 10:36:47.2468	6,7049102E-003	-5,7154228E-003
31/08/2025 10:36:49.5468	1,2432210E-002	-5,7164161E-003
31/08/2025 10:36:51.8468	1,3704944E-002	-5,7110302E-003
31/08/2025 10:36:54.1468	8,6140092E-003	-5,7117557E-003
31/08/2025 10:36:56.4468	3,4124311E-004	-5,7151169E-003
31/08/2025 10:36:58.7468	4,1594426E-003	-5,7137036E-003
31/08/2025 10:37:01.0468	5,4321769E-003	-5,7122139E-003
31/08/2025 10:37:03.3468	8,6140092E-003	-5,7141623E-003
31/08/2025 10:37:05.6468	3,5230771E-003	-5,7175234E-003
31/08/2025 10:37:07.9468	1,3704944E-002	-5,7149646E-003
31/08/2025 10:37:10.2468	6,7049102E-003	-5,7150787E-003
31/08/2025 10:37:12.5468	1,3068578E-002	-5,7163779E-003
31/08/2025 10:37:14.8468	2,8867100E-003	-5,7164161E-003
31/08/2025 10:37:17.1468	3,5230771E-003	-5,7097310E-003
31/08/2025 10:37:19.3470	-2,6483328E+001	-1,6645217E-002
31/08/2025 10:37:21.6470	-2,6482693E+001	-1,7986676E-002
31/08/2025 10:37:23.9470	-2,6488420E+001	-1,8710749E-002
31/08/2025 10:37:26.2470	-2,6485874E+001	-1,9157836E-002
31/08/2025 10:37:28.5470	-2,6476965E+001	-1,9409230E-002
31/08/2025 10:37:30.8470	-2,6486509E+001	-1,9580288E-002
31/08/2025 10:37:33.1470	-2,6484600E+001	-1,9692328E-002
31/08/2025 10:37:35.4470	-2,6487783E+001	-1,9754019E-002
31/08/2025 10:37:37.7470	-2,6488420E+001	-1,9793976E-002
31/08/2025 10:37:40.0470	-2,6491598E+001	-1,9827362E-002
31/08/2025 10:37:42.3470	-2,6486509E+001	-1,9841762E-002
31/08/2025 10:37:44.6470	-2,6489691E+001	-1,9856928E-002
31/08/2025 10:37:46.9470	-2,6490330E+001	-1,9876027E-002
31/08/2025 10:37:49.2470	-2,6486509E+001	-1,9878663E-002
31/08/2025 10:37:51.5470	-2,6483963E+001	-1,9906972E-002
31/08/2025 10:37:53.8470	-2,6483963E+001	-1,9918583E-002
31/08/2025 10:37:56.1470	-2,6482054E+001	-1,9933444E-002
31/08/2025 10:37:58.4470	-2,6480146E+001	-1,9948760E-002
31/08/2025 10:38:00.7470	-2,6482054E+001	-1,9962398E-002
31/08/2025 10:38:03.0470	-2,6486509E+001	-1,9996433E-002
31/08/2025 10:38:05.3470	-2,6482693E+001	-2,0009575E-002
31/08/2025 10:38:07.6470	-2,6485235E+001	-2,0021800E-002
31/08/2025 10:38:09.9470	-2,6488420E+001	-2,0046705E-002
31/08/2025 10:38:12.2470	-2,6483963E+001	-2,0055339E-002
31/08/2025 10:38:14.5470	-2,6485235E+001	-2,0075049E-002
31/08/2025 10:38:16.8470	-2,6478237E+001	-2,0106221E-002
31/08/2025 10:38:19.1470	-2,6478872E+001	-2,0118175E-002
31/08/2025 10:38:21.4470	-2,6489691E+001	-2,0138536E-002
31/08/2025 10:38:23.7470	-2,6480146E+001	-2,0153854E-002
31/08/2025 10:38:26.0470	-2,6484600E+001	-2,0170663E-002
31/08/2025 10:38:28.3470	-2,6478872E+001	-2,0200191E-002
31/08/2025 10:38:30.6470	-2,6480783E+001	-2,0217000E-002
31/08/2025 10:38:32.9470	-2,6484600E+001	-2,0239994E-002
31/08/2025 10:38:35.2470	-2,6481419E+001	-2,0258751E-002
31/08/2025 10:38:37.5470	-2,6483328E+001	-2,0277316E-002
31/08/2025 10:38:39.8470	-2,6482693E+001	-2,0305280E-002
31/08/2025 10:38:42.1470	-2,6485235E+001	-2,0319564E-002
31/08/2025 10:38:44.4470	-2,6484600E+001	-2,0341910E-002
31/08/2025 10:38:46.7470	-2,6482054E+001	-2,0360973E-002
31/08/2025 10:38:49.0470	-2,6481419E+001	-2,0373808E-002
31/08/2025 10:38:51.3470	-2,6483963E+001	-2,0397034E-002
31/08/2025 10:38:53.6470	-2,6483963E+001	-2,0422550E-002
31/08/2025 10:38:55.9470	-2,6487783E+001	-2,0436035E-002
31/08/2025 10:38:58.2470	-2,6482693E+001	-2,0461820E-002
31/08/2025 10:39:00.5470	-2,6482693E+001	-2,0475917E-002
31/08/2025 10:39:02.8470	-2,6486509E+001	-2,0497460E-002
31/08/2025 10:39:05.1470	-2,6481419E+001	-2,0521183E-002
31/08/2025 10:39:07.4470	-2,6478237E+001	-2,0541161E-002
31/08/2025 10:39:09.7470	-2,6485874E+001	-2,0556977E-002
31/08/2025 10:39:12.0470	-2,6486509E+001	-2,0568473E-002
31/08/2025 10:39:14.3470	-2,6483328E+001	-2,0589864E-002
31/08/2025 10:39:16.6470	-2,6480146E+001	-2,0618133E-002
31/08/2025 10:39:18.8472	5,3009686E+001	1,0861539E-002
31/08/2025 10:39:21.1472	5,3012230E+001	1,5581371E-002
31/08/2025 10:39:23.4472	5,3009045E+001	1,8019579E-002
31/08/2025 10:39:25.7472	5,3017323E+001	1,9432278E-002
31/08/2025 10:39:28.0472	5,3015415E+001	2,0264493E-002
31/08/2025 10:39:30.3472	5,3011597E+001	2,0791076E-002
31/08/2025 10:39:32.6472	5,3010323E+001	2,1155158E-002
31/08/2025 10:39:34.9472	5,3015415E+001	2,1352345E-002
31/08/2025 10:39:37.2472	5,3009045E+001	2,1453802E-002
31/08/2025 10:39:39.5472	5,3010960E+001	2,1533066E-002
31/08/2025 10:39:41.8472	5,3010960E+001	2,1555644E-002
31/08/2025 10:39:44.1472	5,3016052E+001	2,1595331E-002
31/08/2025 10:39:46.4472	5,3012230E+001	2,1620849E-002
31/08/2025 10:39:48.7472	5,3007137E+001	2,1637734E-002
31/08/2025 10:39:51.0472	5,3013508E+001	2,1675972E-002
31/08/2025 10:39:53.3472	5,3012867E+001	2,1687547E-002
31/08/2025 10:39:55.6472	5,3009045E+001	2,1722613E-002
31/08/2025 10:39:57.9472	5,3019230E+001	2,1757450E-002
31/08/2025 10:40:00.2472	5,3010323E+001	2,1782702E-002
31/08/2025 10:40:02.5472	5,3017323E+001	2,1829726E-002
31/08/2025 10:40:04.8472	5,3015415E+001	2,1853713E-002
31/08/2025 10:40:07.1472	5,3007774E+001	2,1884311E-002
31/08/2025 10:40:09.4472	5,3011597E+001	2,1940390E-002
31/08/2025 10:40:11.7472	5,3014145E+001	2,1976870E-002
31/08/2025 10:40:14.0472	5,3014778E+001	2,2012396E-002
31/08/2025 10:40:16.3472	5,3012230E+001	2,2052582E-002
31/08/2025 10:40:18.6472	5,3007137E+001	2,2082414E-002
31/08/2025 10:40:20.9472	5,3010960E+001	2,2137690E-002
31/08/2025 10:40:23.2472	5,3012867E+001	2,2172146E-002
31/08/2025 10:40:25.5472	5,3019230E+001	2,2205878E-002
31/08/2025 10:40:27.8472	5,3011597E+001	2,2255078E-002
31/08/2025 10:40:30.1472	5,3008415E+001	2,2277653E-002
31/08/2025 10:40:32.4472	5,3012867E+001	2,2315396E-002
31/08/2025 10:40:34.7472	5,3010323E+001	2,2373611E-002
31/08/2025 10:40:37.0472	5,3006504E+001	2,2397142E-002
31/08/2025 10:40:39.3472	5,3011597E+001	2,2439659E-002
31/08/2025 10:40:41.6472	5,3026871E+001	2,2481641E-002
31/08/2025 10:40:43.9472	5,3014778E+001	2,2517167E-002
31/08/2025 10:40:46.2472	5,3018593E+001	2,2570683E-002
31/08/2025 10:40:48.5472	5,3015415E+001	2,2599677E-002
31/08/2025 10:40:50.8472	5,3021141E+001	2,2632720E-002
31/08/2025 10:40:53.1472	5,3012867E+001	2,2681233E-002
31/08/2025 10:40:55.4472	5,3015415E+001	2,2716912E-002
31/08/2025 10:40:57.7472	5,3012230E+001	2,2767067E-002
31/08/2025 10:41:00.0472	5,3016052E+001	2,2795871E-002
31/08/2025 10:41:02.3472	5,3009686E+001	2,2822075E-002
31/08/2025 10:41:04.6472	5,3012230E+001	2,2877580E-002
31/08/2025 10:41:06.9472	5,3006504E+001	2,2896297E-002
31/08/2025 10:41:09.2472	5,3011597E+001	2,2943780E-002
31/08/2025 10:41:11.5472	5,3013508E+001	2,2993172E-002
31/08/2025 10:41:13.8472	5,3014145E+001	2,3017695E-002
31/08/2025 10:41:16.1472	5,3017323E+001	2,3063267E-002
31/08/2025 10:41:18.3476	3,5230771E-003	3,3200139E-003
31/08/2025 10:41:20.6476	5,4321769E-003	-5,0185987E-004
31/08/2025 10:41:22.9476	1,1795843E-002	-2,3245937E-003
31/08/2025 10:41:25.2476	4,1594426E-003	-3,3586582E-003
31/08/2025 10:41:27.5476	9,2503773E-003	-3,9619831E-003
31/08/2025 10:41:29.8476	6,7049102E-003	-4,3314500E-003
31/08/2025 10:41:32.1476	7,3412773E-003	-4,5491494E-003
31/08/2025 10:41:34.4476	8,6140092E-003	-4,6829628E-003
31/08/2025 10:41:36.7476	6,7049102E-003	-4,7475584E-003
31/08/2025 10:41:39.0476	4,7958097E-003	-4,7657420E-003
31/08/2025 10:41:41.3476	1,0523110E-002	-4,7696000E-003
31/08/2025 10:41:43.6476	2,8867100E-003	-4,7594770E-003
31/08/2025 10:41:45.9476	6,7049102E-003	-4,7520660E-003
31/08/2025 10:41:48.2476	7,3412773E-003	-4,7403770E-003
31/08/2025 10:41:50.5476	2,8867100E-003	-4,7399951E-003
31/08/2025 10:41:52.8476	6,7049102E-003	-4,7239130E-003
31/08/2025 10:41:55.1476	6,7049102E-003	-4,7220411E-003
31/08/2025 10:41:57.4476	9,2503773E-003	-4,7184885E-003
31/08/2025 10:41:59.7476	6,0685435E-003	-4,7039730E-003
31/08/2025 10:42:02.0476	1,0523110E-002	-4,7098557E-003
31/08/2025 10:42:04.3476	9,2503773E-003	-4,7015282E-003
31/08/2025 10:42:06.6476	4,7958097E-003	-4,7054244E-003
31/08/2025 10:42:08.9476	6,0685435E-003	-4,7022537E-003
31/08/2025 10:42:11.2476	7,3412773E-003	-4,7026356E-003
31/08/2025 10:42:13.5476	1,4341311E-002	-4,7020246E-003
31/08/2025 10:42:15.8476	9,2503773E-003	-4,7001527E-003
31/08/2025 10:42:18.1476	7,3412773E-003	-4,6974788E-003
31/08/2025 10:42:20.4476	6,7049102E-003	-4,7047366E-003
31/08/2025 10:42:22.7476	8,6140092E-003	-4,7011459E-003
31/08/2025 10:42:25.0476	6,0685435E-003	-4,7006491E-003
31/08/2025 10:42:27.3476	1,6139771E-003	-4,7033997E-003
31/08/2025 10:42:29.6476	2,2503431E-003	-4,7072964E-003
31/08/2025 10:42:31.9476	8,6140092E-003	-4,7023683E-003
31/08/2025 10:42:34.2476	9,7761012E-004	-4,6993890E-003
31/08/2025 10:42:36.5476	1,0523110E-002	-4,7059595E-003
31/08/2025 10:42:38.8476	4,1594426E-003	-4,7012987E-003
31/08/2025 10:42:41.1476	3,5230771E-003	-4,7009932E-003
31/08/2025 10:42:43.4476	4,1594426E-003	-4,6967147E-003
31/08/2025 10:42:45.7476	9,8867435E-003	-4,7063413E-003
31/08/2025 10:42:48.0476	1,0523110E-002	-4,6982812E-003
31/08/2025 10:42:50.3476	9,8867435E-003	-4,6997708E-003
31/08/2025 10:42:52.6476	7,3412773E-003	-4,6994272E-003
31/08/2025 10:42:54.9476	8,6140092E-003	-4,7015282E-003
31/08/2025 10:42:57.2476	6,7049102E-003	-4,7009550E-003
31/08/2025 10:42:59.5476	6,7049102E-003	-4,6984339E-003
31/08/2025 10:43:01.8476	7,9776440E-003	-4,7008786E-003
31/08/2025 10:43:04.1476	1,1795843E-002	-4,7003441E-003
31/08/2025 10:43:06.4476	8,6140092E-003	-4,6967911E-003
31/08/2025 10:43:08.7476	9,8867435E-003	-4,6961037E-003
31/08/2025 10:43:11.0476	7,3412773E-003	-4,6987012E-003
31/08/2025 10:43:13.3476	1,2432210E-002	-4,6921694E-003
31/08/2025 10:43:15.6476	1,6250411E-002	-4,6961801E-003
31/08/2025 10:43:17.8478	-5,2977814E+001	-2,2412818E-002
31/08/2025 10:43:20.1478	-5,2973358E+001	-2,7743587E-002
31/08/2025 10:43:22.4478	-5,2978451E+001	-2,9871689E-002
31/08/2025 10:43:24.7478	-5,2980999E+001	-3,1072343E-002
31/08/2025 10:43:27.0478	-5,2975266E+001	-3,1799626E-002
31/08/2025 10:43:29.3478	-5,2976543E+001	-3,2249734E-002
31/08/2025 10:43:31.6478	-5,2976543E+001	-3,2554567E-002
31/08/2025 10:43:33.9478	-5,2978451E+001	-3,2741360E-002
31/08/2025 10:43:36.2478	-5,2973995E+001	-3,2849122E-002
31/08/2025 10:43:38.5478	-5,2979729E+001	-3,2922085E-002
31/08/2025 10:43:40.8478	-5,2979088E+001	-3,2959860E-002
31/08/2025 10:43:43.1478	-5,2979088E+001	-3,3000126E-002
31/08/2025 10:43:45.4478	-5,2979088E+001	-3,3044171E-002
31/08/2025 10:43:47.7478	-5,2979088E+001	-3,3068847E-002
31/08/2025 10:43:50.0478	-5,2977814E+001	-3,3095665E-002
31/08/2025 10:43:52.3478	-5,2979729E+001	-3,3117935E-002
31/08/2025 10:43:54.6478	-5,2973358E+001	-3,3142917E-002
31/08/2025 10:43:56.9478	-5,2973995E+001	-3,3210605E-002
31/08/2025 10:43:59.2478	-5,2979729E+001	-3,3228524E-002
31/08/2025 10:44:01.5478	-5,2974636E+001	-3,3252053E-002
31/08/2025 10:44:03.8478	-5,2978451E+001	-3,3306371E-002
31/08/2025 10:44:06.1478	-5,2976543E+001	-3,3332843E-002
31/08/2025 10:44:08.4478	-5,2975266E+001	-3,3377536E-002
31/08/2025 10:44:10.7478	-5,2981636E+001	-3,3413369E-002
31/08/2025 10:44:13.0478	-5,2972725E+001	-3,3451606E-002
31/08/2025 10:44:15.3478	-5,2979729E+001	-3,3497982E-002
31/08/2025 10:44:17.6478	-5,2975906E+001	-3,3528350E-002
31/08/2025 10:44:19.9478	-5,2975266E+001	-3,3577356E-002
31/08/2025 10:44:22.2478	-5,2977814E+001	-3,3616323E-002
31/08/2025 10:44:24.5478	-5,2977180E+001	-3,3649825E-002
31/08/2025 10:44:26.8478	-5,2976543E+001	-3,3697840E-002
31/08/2025 10:44:29.1478	-5,2980999E+001	-3,3716179E-002
31/08/2025 10:44:31.4478	-5,2980358E+001	-3,3763394E-002
31/08/2025 10:44:33.7478	-5,2977180E+001	-3,3817634E-002
31/08/2025 10:44:36.0478	-5,2980999E+001	-3,3843078E-002
31/08/2025 10:44:38.3478	-5,2975906E+001	-3,3890408E-002
31/08/2025 10:44:40.6478	-5,2975266E+001	-3,3922531E-002
31/08/2025 10:44:42.9478	-5,2973358E+001	-3,3964630E-002
31/08/2025 10:44:45.2478	-5,2978451E+001	-3,4017269E-002
31/08/2025 10:44:47.5478	-5,2979729E+001	-3,4038275E-002
31/08/2025 10:44:49.8478	-5,2978451E+001	-3,4092523E-002
31/08/2025 10:44:52.1478	-5,2973995E+001	-3,4132704E-002
31/08/2025 10:44:54.4478	-5,2981636E+001	-3,4158185E-002
31/08/2025 10:44:56.7478	-5,2975906E+001	-3,4201160E-002
31/08/2025 10:44:59.0478	-5,2977180E+001	-3,4253988E-002
31/08/2025 10:45:01.3478	-5,2983543E+001	-3,4282949E-002
31/08/2025 10:45:03.6478	-5,2983543E+001	-3,4319922E-002
31/08/2025 10:45:05.9478	-5,2979729E+001	-3,4356669E-002
31/08/2025 10:45:08.2478	-5,2968910E+001	-3,4390017E-002
31/08/2025 10:45:10.5478	-5,2979088E+001	-3,4448616E-002
31/08/2025 10:45:12.8478	-5,2975266E+001	-3,4489453E-002
31/08/2025 10:45:15.1478	-5,2982273E+001	-3,4521200E-002
31/08/2025 10:45:17.4478	-5,2975906E+001	-3,4563676E-002
31/08/2025 10:45:19.6480	7,9514992E+001	2,1428285E-002
31/08/2025 10:45:21.9480	7,9510536E+001	2,7468219E-002
31/08/2025 10:45:24.2480	7,9509903E+001	3,0810039E-002
31/08/2025 10:45:26.5480	7,9498444E+001	3,2764025E-002
31/08/2025 10:45:28.8480	7,9506088E+001	3,3937979E-002
31/08/2025 10:45:31.1480	7,9515625E+001	3,4685623E-002
31/08/2025 10:45:33.4480	7,9502899E+001	3,5158191E-002
31/08/2025 10:45:35.7480	7,9507347E+001	3,5433076E-002
31/08/2025 10:45:38.0480	7,9504814E+001	3,5606116E-002
31/08/2025 10:45:40.3480	7,9514359E+001	3,5679959E-002
31/08/2025 10:45:42.6480	7,9507347E+001	3,5721786E-002
31/08/2025 10:45:44.9480	7,9507996E+001	3,5776794E-002
31/08/2025 10:45:47.2480	7,9513718E+001	3,5787873E-002
31/08/2025 10:45:49.5480	7,9503532E+001	3,5838522E-002
31/08/2025 10:45:51.8480	7,9507347E+001	3,5875846E-002
31/08/2025 10:45:54.1480	7,9509262E+001	3,5899490E-002
31/08/2025 10:45:56.4480	7,9507347E+001	3,5964128E-002
31/08/2025 10:45:58.7480	7,9508629E+001	3,5990290E-002
31/08/2025 10:46:01.0480	7,9514359E+001	3,6046140E-002
31/08/2025 10:46:03.3480	7,9513084E+001	3,6118872E-002
31/08/2025 10:46:05.6480	7,9507347E+001	3,6150005E-002
31/08/2025 10:46:07.9480	7,9508629E+001	3,6215823E-002
31/08/2025 10:46:10.2480	7,9502899E+001	3,6253028E-002
31/08/2025 10:46:12.5480	7,9514359E+001	3,6315411E-002
31/08/2025 10:46:14.8480	7,9509262E+001	3,6395054E-002
31/08/2025 10:46:17.1480	7,9510536E+001	3,6433674E-002
31/08/2025 10:46:19.4480	7,9511810E+001	3,6504995E-002
31/08/2025 10:46:21.7480	7,9507996E+001	3,6559239E-002
31/08/2025 10:46:24.0480	7,9500992E+001	3,6613289E-002
31/08/2025 10:46:26.3479	7,9503532E+001	3,6693316E-002
31/08/2025 10:46:28.6479	7,9505440E+001	3,6758907E-002
31/08/2025 10:46:30.9479	7,9507347E+001	3,6803484E-002
31/08/2025 10:46:33.2479	7,9511177E+001	3,6864262E-002
31/08/2025 10:46:35.5479	7,9516266E+001	3,6904026E-002
31/08/2025 10:46:37.8479	7,9513718E+001	3,6964457E-002
31/08/2025 10:46:40.1479	7,9509262E+001	3,7042771E-002
31/08/2025 10:46:42.4479	7,9514992E+001	3,7093382E-002
31/08/2025 10:46:44.7479	7,9513084E+001	3,7149765E-002
31/08/2025 10:46:47.0479	7,9504181E+001	3,7202898E-002
31/08/2025 10:46:49.3479	7,9509262E+001	3,7259515E-002
31/08/2025 10:46:51.6479	7,9510536E+001	3,7352685E-002
31/08/2025 10:46:53.9479	7,9507996E+001	3,7395198E-002
31/08/2025 10:46:56.2479	7,9509903E+001	3,7440501E-002
31/08/2025 10:46:58.5479	7,9505440E+001	3,7521180E-002
31/08/2025 10:47:00.8479	7,9506721E+001	3,7560947E-002
31/08/2025 10:47:03.1479	7,9500992E+001	3,7642464E-002
31/08/2025 10:47:05.4479	7,9514359E+001	3,7695218E-002
31/08/2025 10:47:07.7479	7,9514359E+001	3,7741896E-002
31/08/2025 10:47:10.0479	7,9516899E+001	3,7817072E-002
31/08/2025 10:47:12.3479	7,9516899E+001	3,7854932E-002
31/08/2025 10:47:14.6479	7,9511177E+001	3,7927970E-002
31/08/2025 10:47:16.9479	7,9511810E+001	3,7992567E-002
31/08/2025 10:47:19.1483	1,3068578E-002	5,6801406E-003
31/08/2025 10:47:21.4483	8,6140092E-003	1,4744365E-003
31/08/2025 10:47:23.7483	4,7958097E-003	-7,5932546E-004
31/08/2025 10:47:26.0483	9,2503773E-003	-2,0330159E-003
31/08/2025 10:47:28.3483	1,1159477E-002	-2,7863127E-003
31/08/2025 10:47:30.6483	9,2503773E-003	-3,2551370E-003
31/08/2025 10:47:32.9483	1,2432210E-002	-3,5314732E-003
31/08/2025 10:47:35.2483	6,0685435E-003	-3,6847300E-003
31/08/2025 10:47:37.5483	1,3068578E-002	-3,7541387E-003
31/08/2025 10:47:39.8483	1,1795843E-002	-3,7757982E-003
31/08/2025 10:47:42.1483	9,2503773E-003	-3,7690750E-003
31/08/2025 10:47:44.4483	7,3412773E-003	-3,7553229E-003
31/08/2025 10:47:46.7483	1,3068578E-002	-3,7435575E-003
31/08/2025 10:47:49.0483	1,3068578E-002	-3,7269788E-003
31/08/2025 10:47:51.3483	4,1594426E-003	-3,7108967E-003
31/08/2025 10:47:53.6483	7,3412773E-003	-3,7031807E-003
31/08/2025 10:47:55.9483	6,7049102E-003	-3,6930577E-003
31/08/2025 10:47:58.2483	8,6140092E-003	-3,6798406E-003
31/08/2025 10:48:00.5483	9,8867435E-003	-3,6767465E-003
31/08/2025 10:48:02.8483	1,3068578E-002	-3,6687627E-003
31/08/2025 10:48:05.1483	1,6250411E-002	-3,6650191E-003
31/08/2025 10:48:07.4483	1,6139771E-003	-3,6715514E-003
31/08/2025 10:48:09.7483	1,1159477E-002	-3,6688009E-003
31/08/2025 10:48:12.0483	8,6140092E-003	-3,6669290E-003
31/08/2025 10:48:14.3483	1,1795843E-002	-3,6650572E-003
31/08/2025 10:48:16.6483	9,2503773E-003	-3,6663944E-003
31/08/2025 10:48:18.9483	1,1795843E-002	-3,6633001E-003
31/08/2025 10:48:21.2483	7,3412773E-003	-3,6702906E-003
31/08/2025 10:48:23.5483	9,8867435E-003	-3,6660123E-003
31/08/2025 10:48:25.8483	1,3068578E-002	-3,6652100E-003
31/08/2025 10:48:28.1483	6,7049102E-003	-3,6688391E-003
31/08/2025 10:48:30.4483	1,1795843E-002	-3,6693357E-003
31/08/2025 10:48:32.7483	1,1795843E-002	-3,6667380E-003
31/08/2025 10:48:35.0483	6,0685435E-003	-3,6676547E-003
31/08/2025 10:48:37.3483	5,4321769E-003	-3,6638731E-003
31/08/2025 10:48:39.6483	7,3412773E-003	-3,6687243E-003
31/08/2025 10:48:41.9483	1,1159477E-002	-3,6712075E-003
31/08/2025 10:48:44.2483	5,4321769E-003	-3,6652482E-003
31/08/2025 10:48:46.5483	9,8867435E-003	-3,6655157E-003
31/08/2025 10:48:48.8483	8,6140092E-003	-3,6730410E-003
31/08/2025 10:48:51.1483	8,6140092E-003	-3,6660887E-003
31/08/2025 10:48:53.4483	9,8867435E-003	-3,6588688E-003
31/08/2025 10:48:55.7483	9,2503773E-003	-3,6647515E-003
31/08/2025 10:48:58.0483	9,2503773E-003	-3,6669672E-003
31/08/2025 10:49:00.3483	8,6140092E-003	-3,6663944E-003
31/08/2025 10:49:02.6483	4,1594426E-003	-3,6635292E-003
31/08/2025 10:49:04.9483	6,0685435E-003	-3,6618102E-003
31/08/2025 10:49:07.2483	9,2503773E-003	-3,6656684E-003
31/08/2025 10:49:09.5483	4,1594426E-003	-3,6671581E-003
31/08/2025 10:49:11.8483	6,7049102E-003	-3,6639876E-003
31/08/2025 10:49:14.1483	7,3412773E-003	-3,6602060E-003
31/08/2025 10:49:16.4483	6,0685435E-003	-3,6661651E-003
31/08/2025 10:49:18.6485	-7,9478027E+001	-3,4432650E-002
31/08/2025 10:49:20.9485	-7,9472939E+001	-3,9568745E-002
31/08/2025 10:49:23.2485	-7,9480576E+001	-4,2191189E-002
31/08/2025 10:49:25.5485	-7,9467842E+001	-4,3730177E-002
31/08/2025 10:49:27.8485	-7,9476761E+001	-4,4637226E-002
31/08/2025 10:49:30.1485	-7,9474846E+001	-4,5228403E-002
31/08/2025 10:49:32.4485	-7,9474213E+001	-4,5610014E-002
31/08/2025 10:49:34.7485	-7,9476761E+001	-4,5841049E-002
31/08/2025 10:49:37.0485	-7,9478027E+001	-4,5991324E-002
31/08/2025 10:49:39.3485	-7,9471031E+001	-4,6100847E-002
31/08/2025 10:49:41.6485	-7,9469749E+001	-4,6152070E-002
31/08/2025 10:49:43.9485	-7,9473579E+001	-4,6197679E-002
31/08/2025 10:49:46.2485	-7,9477394E+001	-4,6231985E-002
31/08/2025 10:49:48.5485	-7,9471031E+001	-4,6271708E-002
31/08/2025 10:49:50.8485	-7,9471031E+001	-4,6341464E-002
31/08/2025 10:49:53.1485	-7,9474846E+001	-4,6382681E-002
31/08/2025 10:49:55.4485	-7,9474846E+001	-4,6429168E-002
31/08/2025 10:49:57.7485	-7,9477394E+001	-4,6487078E-002
31/08/2025 10:50:00.0485	-7,9472939E+001	-4,6534944E-002
31/08/2025 10:50:02.3485	-7,9477394E+001	-4,6620857E-002
31/08/2025 10:50:04.6485	-7,9478027E+001	-4,6660926E-002
31/08/2025 10:50:06.9485	-7,9470398E+001	-4,6710547E-002
31/08/2025 10:50:09.2485	-7,9481850E+001	-4,6791226E-002
31/08/2025 10:50:11.5485	-7,9474213E+001	-4,6813838E-002
31/08/2025 10:50:13.8485	-7,9474846E+001	-4,6890315E-002
31/08/2025 10:50:16.1485	-7,9476761E+001	-4,6953078E-002
31/08/2025 10:50:18.4485	-7,9476761E+001	-4,6989977E-002
31/08/2025 10:50:20.7485	-7,9481209E+001	-4,7067028E-002
31/08/2025 10:50:23.0485	-7,9476120E+001	-4,7116954E-002
31/08/2025 10:50:25.3485	-7,9474213E+001	-4,7181129E-002
31/08/2025 10:50:27.6485	-7,9474846E+001	-4,7263488E-002
31/08/2025 10:50:29.9485	-7,9473579E+001	-4,7310438E-002
31/08/2025 10:50:32.2485	-7,9476120E+001	-4,7371250E-002
31/08/2025 10:50:34.5485	-7,9476120E+001	-4,7424003E-002
31/08/2025 10:50:36.8485	-7,9479301E+001	-4,7483325E-002
31/08/2025 10:50:39.1485	-7,9473579E+001	-4,7550291E-002
31/08/2025 10:50:41.4485	-7,9480576E+001	-4,7596663E-002
31/08/2025 10:50:43.7485	-7,9472305E+001	-4,7666915E-002
31/08/2025 10:50:46.0485	-7,9474213E+001	-4,7723334E-002
31/08/2025 10:50:48.3485	-7,9476120E+001	-4,7769710E-002
31/08/2025 10:50:50.6485	-7,9465935E+001	-4,7851991E-002
31/08/2025 10:50:52.9485	-7,9465935E+001	-4,7918495E-002
31/08/2025 10:50:55.2485	-7,9474213E+001	-4,7975872E-002
31/08/2025 10:50:57.5485	-7,9478027E+001	-4,8041616E-002
31/08/2025 10:50:59.8485	-7,9471664E+001	-4,8095282E-002
31/08/2025 10:51:02.1485	-7,9479301E+001	-4,8149720E-002
31/08/2025 10:51:04.4485	-7,9472305E+001	-4,8230510E-002
31/08/2025 10:51:06.7485	-7,9471031E+001	-4,8274022E-002
31/08/2025 10:51:09.0485	-7,9478668E+001	-4,8329525E-002
31/08/2025 10:51:11.3485	-7,9471031E+001	-4,8392899E-002
31/08/2025 10:51:13.6485	-7,9477394E+001	-4,8435453E-002
31/08/2025 10:51:15.9485	-7,9470398E+001	-4,8528928E-002
31/08/2025 10:51:18.1487	1,0600631E+002	1,8610831E-002
31/08/2025 10:51:20.4487	1,0601140E+002	3,3521257E-002
31/08/2025 10:51:22.7487	1,0600694E+002	4,0286224E-002
31/08/2025 10:51:25.0487	1,0600185E+002	4,4151492E-002
31/08/2025 10:51:27.3487	1,0600822E+002	4,6421811E-002
31/08/2025 10:51:29.6487	1,0600568E+002	4,7839511E-002
31/08/2025 10:51:31.9487	1,0601585E+002	4,8788548E-002
31/08/2025 10:51:34.2487	1,0600822E+002	4,9330216E-002
31/08/2025 10:51:36.5487	1,0600949E+002	4,9630847E-002
31/08/2025 10:51:38.8487	1,0601140E+002	4,9821045E-002
31/08/2025 10:51:41.1487	1,0601203E+002	4,9894158E-002
31/08/2025 10:51:43.4487	1,0601266E+002	4,9981866E-002
31/08/2025 10:51:45.7487	1,0601076E+002	5,0011929E-002
31/08/2025 10:51:48.0487	1,0601394E+002	5,0028201E-002
31/08/2025 10:51:50.3487	1,0601076E+002	5,0104525E-002
31/08/2025 10:51:52.6487	1,0601585E+002	5,0118655E-002
31/08/2025 10:51:54.9487	1,0601140E+002	5,0189253E-002
31/08/2025 10:51:57.2487	1,0601648E+002	5,0268937E-002
31/08/2025 10:51:59.5487	1,0601203E+002	5,0304040E-002
31/08/2025 10:52:01.8487	1,0601457E+002	5,0396942E-002
31/08/2025 10:52:04.1487	1,0601140E+002	5,0448585E-002
31/08/2025 10:52:06.4487	1,0600440E+002	5,0529458E-002
31/08/2025 10:52:08.7487	1,0600885E+002	5,0629083E-002
31/08/2025 10:52:11.0487	1,0601012E+002	5,0690774E-002
31/08/2025 10:52:13.3487	1,0600949E+002	5,0769351E-002
31/08/2025 10:52:15.6487	1,0601585E+002	5,0845407E-002
31/08/2025 10:52:17.9487	1,0600758E+002	5,0921574E-002
31/08/2025 10:52:20.2487	1,0601203E+002	5,1012527E-002
31/08/2025 10:52:22.5487	1,0601012E+002	5,1092099E-002
31/08/2025 10:52:24.8487	1,0601266E+002	5,1176328E-002
31/08/2025 10:52:27.1487	1,0600694E+002	5,1268850E-002
31/08/2025 10:52:29.4487	1,0601140E+002	5,1318433E-002
31/08/2025 10:52:31.7487	1,0601140E+002	5,1404420E-002
31/08/2025 10:52:34.0487	1,0601076E+002	5,1513210E-002
31/08/2025 10:52:36.3487	1,0601394E+002	5,1573072E-002
31/08/2025 10:52:38.6487	1,0601266E+002	5,1661886E-002
31/08/2025 10:52:40.9487	1,0601839E+002	5,1720291E-002
31/08/2025 10:52:43.2487	1,0600694E+002	5,1792260E-002
31/08/2025 10:52:45.5487	1,0601140E+002	5,1914267E-002
31/08/2025 10:52:47.8487	1,0600885E+002	5,1968478E-002
31/08/2025 10:52:50.1487	1,0601266E+002	5,2026846E-002
31/08/2025 10:52:52.4487	1,0601522E+002	5,2130442E-002
31/08/2025 10:52:54.7487	1,0600949E+002	5,2189004E-002
31/08/2025 10:52:57.0487	1,0601585E+002	5,2304287E-002
31/08/2025 10:52:59.3487	1,0600631E+002	5,2383859E-002
31/08/2025 10:53:01.6487	1,0601203E+002	5,2438486E-002
31/08/2025 10:53:03.9487	1,0601839E+002	5,2541699E-002
31/08/2025 10:53:06.2487	1,0601140E+002	5,2591398E-002
31/08/2025 10:53:08.5487	1,0600822E+002	5,2677728E-002
31/08/2025 10:53:10.8487	1,0600885E+002	5,2779797E-002
31/08/2025 10:53:13.1487	1,0600949E+002	5,2835032E-002
31/08/2025 10:53:15.4487	1,0601203E+002	5,2926827E-002
31/08/2025 10:53:17.7487	1,0601203E+002	5,2979961E-002
31/08/2025 10:53:19.9491	9,8867435E-003	7,3980163E-003
31/08/2025 10:53:22.2491	4,1594426E-003	2,9919937E-003
31/08/2025 10:53:24.5491	9,7761012E-004	5,5023457E-004
31/08/2025 10:53:26.8491	1,5614044E-002	-8,6475641E-004
31/08/2025 10:53:29.1491	9,8867435E-003	-1,7133232E-003
31/08/2025 10:53:31.4491	6,0685435E-003	-2,2406310E-003
31/08/2025 10:53:33.7491	7,3412773E-003	-2,5493223E-003
31/08/2025 10:53:36.0491	1,2432210E-002	-2,7080416E-003
31/08/2025 10:53:38.3491	5,4321769E-003	-2,7721408E-003
31/08/2025 10:53:40.6491	1,2432210E-002	-2,7907821E-003
31/08/2025 10:53:42.9491	6,0685435E-003	-2,7785201E-003
31/08/2025 10:53:45.2491	8,6140092E-003	-2,7595730E-003
31/08/2025 10:53:47.5491	1,6139771E-003	-2,7380667E-003
31/08/2025 10:53:49.8491	7,3412773E-003	-2,7193869E-003
31/08/2025 10:53:52.1491	4,1594426E-003	-2,7055207E-003
31/08/2025 10:53:54.4491	7,3412773E-003	-2,6905844E-003
31/08/2025 10:53:56.7491	8,6140092E-003	-2,6787044E-003
31/08/2025 10:53:59.0491	4,7958097E-003	-2,6656019E-003
31/08/2025 10:54:01.3491	7,3412773E-003	-2,6580766E-003
31/08/2025 10:54:03.6491	6,7049102E-003	-2,6543331E-003
31/08/2025 10:54:05.9491	1,0523110E-002	-2,6472281E-003
31/08/2025 10:54:08.2491	6,7049102E-003	-2,6495198E-003
31/08/2025 10:54:10.5491	1,1795843E-002	-2,6430259E-003
31/08/2025 10:54:12.8491	2,8867100E-003	-2,6386331E-003
31/08/2025 10:54:15.1491	5,4321769E-003	-2,6447449E-003
31/08/2025 10:54:17.4491	6,0685435E-003	-2,6467696E-003
31/08/2025 10:54:19.7491	3,5230771E-003	-2,6478772E-003
31/08/2025 10:54:22.0491	9,2503773E-003	-2,6469606E-003
31/08/2025 10:54:24.3491	7,9776440E-003	-2,6392443E-003
31/08/2025 10:54:26.6491	8,6140092E-003	-2,6471133E-003
31/08/2025 10:54:28.9491	7,3412773E-003	-2,6457382E-003
31/08/2025 10:54:31.2491	6,7049102E-003	-2,6452034E-003
31/08/2025 10:54:33.5491	9,2503773E-003	-2,6423766E-003
31/08/2025 10:54:35.8491	3,5230771E-003	-2,6433314E-003
31/08/2025 10:54:38.1491	6,0685435E-003	-2,6461200E-003
31/08/2025 10:54:40.4491	1,1795843E-002	-2,6439810E-003
31/08/2025 10:54:42.7491	9,8867435E-003	-2,6526141E-003
31/08/2025 10:54:45.0491	3,5230771E-003	-2,6484886E-003
31/08/2025 10:54:47.3491	6,7049102E-003	-2,6458909E-003
31/08/2025 10:54:49.6491	6,0685435E-003	-2,6402755E-003
31/08/2025 10:54:51.9491	8,6140092E-003	-2,6452797E-003
31/08/2025 10:54:54.2491	3,5230771E-003	-2,6432935E-003
31/08/2025 10:54:56.5491	2,2503431E-003	-2,6364939E-003
31/08/2025 10:54:58.8491	7,9776440E-003	-2,6361882E-003
31/08/2025 10:55:01.1491	1,3704944E-002	-2,6415363E-003
31/08/2025 10:55:03.4491	3,4124311E-004	-2,6427587E-003
31/08/2025 10:55:05.7491	1,4341311E-002	-2,6430644E-003
31/08/2025 10:55:08.0491	3,5230771E-003	-2,6406958E-003
31/08/2025 10:55:10.3491	8,6140092E-003	-2,6452034E-003
31/08/2025 10:55:12.6491	4,7958097E-003	-2,6434844E-003
31/08/2025 10:55:14.9491	9,2503773E-003	-2,6459673E-003
31/08/2025 10:55:17.2491	7,3412773E-003	-2,6426821E-003
31/08/2025 10:55:19.4493	-1,0597314E+002	-4,6757650E-002
31/08/2025 10:55:21.7493	-1,0597825E+002	-5,1961929E-002
31/08/2025 10:55:24.0493	-1,0597189E+002	-5,4868158E-002
31/08/2025 10:55:26.3493	-1,0597379E+002	-5,6577630E-002
31/08/2025 10:55:28.6493	-1,0596933E+002	-5,7615094E-002
31/08/2025 10:55:30.9493	-1,0598398E+002	-5,8333516E-002
31/08/2025 10:55:33.2493	-1,0597314E+002	-5,8790036E-002
31/08/2025 10:55:35.5493	-1,0598270E+002	-5,9053503E-002
31/08/2025 10:55:37.8493	-1,0597314E+002	-5,9225820E-002
31/08/2025 10:55:40.1493	-1,0598398E+002	-5,9312876E-002
31/08/2025 10:55:42.4493	-1,0597060E+002	-5,9388589E-002
31/08/2025 10:55:44.7493	-1,0597633E+002	-5,9488062E-002
31/08/2025 10:55:47.0493	-1,0597761E+002	-5,9529509E-002
31/08/2025 10:55:49.3493	-1,0598016E+002	-5,9579778E-002
31/08/2025 10:55:51.6493	-1,0597633E+002	-5,9641127E-002
31/08/2025 10:55:53.9493	-1,0598142E+002	-5,9695143E-002
31/08/2025 10:55:56.2493	-1,0597697E+002	-5,9792437E-002
31/08/2025 10:55:58.5493	-1,0597443E+002	-5,9857298E-002
31/08/2025 10:56:00.8493	-1,0597124E+002	-5,9909936E-002
31/08/2025 10:56:03.1493	-1,0597633E+002	-6,0012236E-002
31/08/2025 10:56:05.4493	-1,0597888E+002	-6,0065869E-002
31/08/2025 10:56:07.7493	-1,0597314E+002	-6,0169276E-002
31/08/2025 10:56:10.0493	-1,0597379E+002	-6,0242619E-002
31/08/2025 10:56:12.3493	-1,0597124E+002	-6,0307022E-002
31/08/2025 10:56:14.6493	-1,0598079E+002	-6,0408022E-002
31/08/2025 10:56:16.9493	-1,0597124E+002	-6,0452525E-002
31/08/2025 10:56:19.2493	-1,0597888E+002	-6,0560286E-002
31/08/2025 10:56:21.5493	-1,0597697E+002	-6,0657691E-002
31/08/2025 10:56:23.8493	-1,0597952E+002	-6,0720991E-002
31/08/2025 10:56:26.1493	-1,0597443E+002	-6,0816109E-002
31/08/2025 10:56:28.4493	-1,0597251E+002	-6,0877573E-002
31/08/2025 10:56:30.7493	-1,0596933E+002	-6,0961153E-002
31/08/2025 10:56:33.0493	-1,0597633E+002	-6,1075486E-002
31/08/2025 10:56:35.3493	-1,0597189E+002	-6,1139241E-002
31/08/2025 10:56:37.6493	-1,0597888E+002	-6,1227098E-002
31/08/2025 10:56:39.9493	-1,0597761E+002	-6,1304033E-002
31/08/2025 10:56:42.2493	-1,0597697E+002	-6,1370347E-002
31/08/2025 10:56:44.5493	-1,0597697E+002	-6,1466534E-002
31/08/2025 10:56:46.8493	-1,0597379E+002	-6,1537851E-002
31/08/2025 10:56:49.1493	-1,0597825E+002	-6,1618682E-002
31/08/2025 10:56:51.4493	-1,0597761E+002	-6,1697260E-002
31/08/2025 10:56:53.7493	-1,0597697E+002	-6,1769877E-002
31/08/2025 10:56:56.0493	-1,0597952E+002	-6,1862055E-002
31/08/2025 10:56:58.3493	-1,0597379E+002	-6,1967980E-002
31/08/2025 10:57:00.6493	-1,0597570E+002	-6,2041860E-002
31/08/2025 10:57:02.9493	-1,0597507E+002	-6,2108707E-002
31/08/2025 10:57:05.2493	-1,0597060E+002	-6,2178001E-002
31/08/2025 10:57:07.5493	-1,0597443E+002	-6,2248752E-002
31/08/2025 10:57:09.8493	-1,0597761E+002	-6,2363081E-002
31/08/2025 10:57:12.1493	-1,0597570E+002	-6,2429167E-002
31/08/2025 10:57:14.4493	-1,0597251E+002	-6,2501900E-002
31/08/2025 10:57:16.7493	-1,0597379E+002	-6,2594265E-002
31/08/2025 10:57:17.7495	-1,0597314E+002	-6,2677227E-002