File: data/phase_2a/Sergey/3/3.3/01 eis/SN50_C7D1_lr 0,1MFeCN6_in_1M_KCl_3306mL_symmetric_balanced_4_point_PEIS_10mV_C16.txt
time/s	freq/Hz	Re(Z)/Ohm	-Im(Z)/Ohm
02/09/2025 16:42:31.1975	1,9999814E+005	2,5552094E-001	-1,9603277E-002
02/09/2025 16:42:31.6315	1,5885727E+005	2,6761585E-001	-1,1184171E-002
02/09/2025 16:42:32.0665	1,2618765E+005	2,7464145E-001	-7,9323929E-003
02/09/2025 16:42:32.5015	1,0022640E+005	2,7807152E-001	-4,6165371E-003
02/09/2025 16:42:34.1955	7,9609563E+004	2,7977630E-001	-2,6273446E-003
02/09/2025 16:42:35.8895	6,3233004E+004	2,8066871E-001	-1,8234465E-003
02/09/2025 16:42:37.1635	5,0224539E+004	2,8117368E-001	-1,3541416E-003
02/09/2025 16:42:37.8775	3,9897566E+004	2,8172526E-001	-5,7485432E-004
02/09/2025 16:42:38.3115	3,1686090E+004	2,8212816E-001	-3,0258988E-004
02/09/2025 16:42:38.7455	2,5172580E+004	2,8225219E-001	2,6508863E-004
02/09/2025 16:42:39.1805	1,9995176E+004	2,8255135E-001	7,5139228E-004
02/09/2025 16:42:39.6145	1,5884798E+004	2,8281996E-001	1,2100640E-003
02/09/2025 16:42:40.0495	1,2618766E+004	2,8306612E-001	1,3871978E-003
02/09/2025 16:42:40.4845	1,0020785E+004	2,8328848E-001	1,6733240E-003
02/09/2025 16:42:40.9758	7,9597607E+003	2,8353804E-001	1,8924347E-003
02/09/2025 16:42:41.5573	6,3238188E+003	2,8390250E-001	2,2224502E-003
02/09/2025 16:42:42.0267	5,0216069E+003	2,8427646E-001	2,2880107E-003
02/09/2025 16:42:42.7179	3,9861731E+003	2,8465644E-001	2,5841768E-003
02/09/2025 16:42:43.1849	3,1669595E+003	2,8498992E-001	2,5709635E-003
02/09/2025 16:42:43.6507	2,5158047E+003	2,8530949E-001	2,8334991E-003
02/09/2025 16:42:44.1190	1,9980818E+003	2,8590229E-001	2,9588419E-003
02/09/2025 16:42:44.5859	1,5884750E+003	2,8641012E-001	3,1385825E-003
02/09/2025 16:42:45.0517	1,2604036E+003	2,8681752E-001	3,3855329E-003
02/09/2025 16:42:45.5184	1,0016024E+003	2,8731388E-001	3,4275015E-003
02/09/2025 16:42:45.9857	7,9525409E+002	2,8779662E-001	3,4122909E-003
02/09/2025 16:42:46.4522	6,3181964E+002	2,8837115E-001	3,7256253E-003
02/09/2025 16:42:46.9189	5,0208865E+002	2,8895572E-001	3,8060350E-003
02/09/2025 16:42:47.3864	3,9859698E+002	2,8956166E-001	3,9514201E-003
02/09/2025 16:42:47.8516	3,1672299E+002	2,9004052E-001	4,2026900E-003
02/09/2025 16:42:48.3164	2,5169135E+002	2,9057837E-001	4,2618951E-003
02/09/2025 16:42:48.7850	1,9980818E+002	2,9117271E-001	4,4617406E-003
02/09/2025 16:42:49.2545	1,5862943E+002	2,9192171E-001	4,6985173E-003
02/09/2025 16:42:49.7192	1,2600809E+002	2,9255617E-001	4,8836893E-003
02/09/2025 16:42:50.1865	1,0016024E+002	2,9331833E-001	5,0511202E-003
02/09/2025 16:42:50.6570	7,9516548E+001	2,9387465E-001	5,4940586E-003
02/09/2025 16:42:51.1356	6,3160763E+001	2,9471681E-001	5,6523173E-003
02/09/2025 16:42:51.6019	5,0208866E+001	2,9546741E-001	5,9482655E-003
02/09/2025 16:42:52.0695	3,9859695E+001	2,9629770E-001	6,2149856E-003
02/09/2025 16:42:52.5152	3,1672298E+001	2,9724947E-001	6,4814761E-003
02/09/2025 16:42:52.9806	2,5136747E+001	2,9816508E-001	6,8768244E-003
02/09/2025 16:42:53.4489	1,9980818E+001	2,9922658E-001	7,2842133E-003
02/09/2025 16:42:53.8929	1,5857577E+001	3,0013001E-001	7,7368715E-003
02/09/2025 16:42:54.4399	1,2600809E+001	3,0115694E-001	8,2629817E-003
02/09/2025 16:42:54.9054	1,0016025E+001	3,0248773E-001	8,7769255E-003
02/09/2025 16:42:55.4802	7,9557004E+000	3,0345649E-001	9,2984838E-003
02/09/2025 16:42:55.8602	6,3105812E+000	3,0460006E-001	9,9745244E-003
02/09/2025 16:42:56.3282	5,0144420E+000	3,0604172E-001	1,0571667E-002
02/09/2025 16:42:56.9017	3,9859698E+000	3,0763015E-001	1,1515254E-002
02/09/2025 16:42:57.6097	3,1655185E+000	3,0876595E-001	1,2317217E-002
02/09/2025 16:42:58.4877	2,5136747E+000	3,1050909E-001	1,3380443E-002
02/09/2025 16:42:59.5807	1,9970603E+000	3,1190801E-001	1,4111238E-002
02/09/2025 16:43:00.9471	1,5846856E+000	3,1357992E-001	1,5681904E-002
02/09/2025 16:43:03.4989	1,2596742E+000	3,1517014E-001	1,7209472E-002
02/09/2025 16:43:05.6372	1,0000639E+000	3,1718609E-001	1,9278413E-002
02/09/2025 16:43:08.3191	7,9443753E-001	3,1950250E-001	2,2037148E-002
02/09/2025 16:43:11.6846	6,3126212E-001	3,2108480E-001	2,4849629E-002
02/09/2025 16:43:15.9143	5,0118679E-001	3,2348582E-001	2,8269848E-002
02/09/2025 16:43:21.2213	3,9867833E-001	3,2619622E-001	3,2591179E-002
02/09/2025 16:43:27.9026	3,1619310E-001	3,3046860E-001	3,8024537E-002
02/09/2025 16:43:36.3033	2,5117347E-001	3,3428684E-001	4,3546628E-002
02/09/2025 16:43:46.8554	1,9980818E-001	3,3917534E-001	4,9337588E-002
02/09/2025 16:44:00.1503	1,5846856E-001	3,4589124E-001	5,6264117E-002
02/09/2025 16:44:16.8753	1,2590654E-001	3,5332942E-001	6,4860612E-002
02/09/2025 16:44:37.8956	1,0013975E-001	3,6094135E-001	7,4172080E-002
02/09/2025 16:45:04.3913	7,9421178E-002	3,6969885E-001	8,3507597E-002
02/09/2025 16:45:37.7312	6,3101739E-002	3,8043457E-001	9,3830086E-002
02/09/2025 16:46:19.6709	5,0154075E-002	3,9382058E-001	1,0513387E-001
02/09/2025 16:47:12.5049	3,9804459E-002	4,0773484E-001	1,1926210E-001
02/09/2025 16:48:19.0649	3,1592205E-002	4,2223090E-001	1,3371539E-001
02/09/2025 16:49:42.6833	2,5144994E-002	4,3950677E-001	1,4800148E-001
02/09/2025 16:51:28.0723	1,9949391E-002	4,6122018E-001	1,6480546E-001
02/09/2025 16:53:40.6213	1,5860692E-002	4,8576045E-001	1,8491821E-001
02/09/2025 16:56:27.7706	1,2576789E-002	5,1206267E-001	2,0681034E-001
02/09/2025 16:59:57.7923	1,0009170E-002	5,4117543E-001	2,2803812E-001
02/09/2025 16:59:58.6285	1,9999814E+005	2,5813779E-001	-2,1617908E-002
02/09/2025 16:59:59.0635	1,5885727E+005	2,6905537E-001	-1,2904679E-002
02/09/2025 16:59:59.4975	1,2618765E+005	2,7471250E-001	-8,2078008E-003
02/09/2025 16:59:59.7915	1,0022640E+005	2,7768177E-001	-4,8333206E-003
02/09/2025 17:00:01.4855	7,9609563E+004	2,7931881E-001	-2,6723891E-003
02/09/2025 17:00:03.1795	6,3233004E+004	2,8023738E-001	-1,7292716E-003
02/09/2025 17:00:04.4535	5,0224539E+004	2,8093296E-001	-1,2670624E-003
02/09/2025 17:00:05.1675	3,9897566E+004	2,8123903E-001	-6,2145403E-004
02/09/2025 17:00:05.6025	3,1686090E+004	2,8142437E-001	-1,4289941E-004
02/09/2025 17:00:06.0365	2,5172580E+004	2,8187460E-001	4,5300249E-004
02/09/2025 17:00:06.4715	1,9995176E+004	2,8201887E-001	8,3797117E-004
02/09/2025 17:00:06.9055	1,5884798E+004	2,8229108E-001	1,0853659E-003
02/09/2025 17:00:07.3395	1,2618766E+004	2,8252324E-001	1,4796925E-003
02/09/2025 17:00:07.7735	1,0020785E+004	2,8276694E-001	1,7311441E-003
02/09/2025 17:00:08.2658	7,9597607E+003	2,8324091E-001	1,9891595E-003
02/09/2025 17:00:08.8473	6,3238188E+003	2,8350174E-001	2,1995243E-003
02/09/2025 17:00:09.3177	5,0216069E+003	2,8387043E-001	2,4671583E-003
02/09/2025 17:00:10.0090	3,9861731E+003	2,8415799E-001	2,5163146E-003
02/09/2025 17:00:10.4760	3,1669595E+003	2,8462529E-001	2,6707747E-003
02/09/2025 17:00:10.9417	2,5158047E+003	2,8503242E-001	2,7661447E-003
02/09/2025 17:00:11.4110	1,9980818E+003	2,8547773E-001	2,8628765E-003
02/09/2025 17:00:11.8780	1,5884750E+003	2,8596115E-001	2,9898100E-003
02/09/2025 17:00:12.3437	1,2604036E+003	2,8642851E-001	3,2066680E-003
02/09/2025 17:00:12.8115	1,0016024E+003	2,8688923E-001	3,3033374E-003
02/09/2025 17:00:13.2787	7,9525409E+002	2,8729093E-001	3,4243956E-003
02/09/2025 17:00:13.7452	6,3181964E+002	2,8786811E-001	3,5791779E-003
02/09/2025 17:00:14.2110	5,0208865E+002	2,8840464E-001	3,7509706E-003
02/09/2025 17:00:14.6785	3,9859698E+002	2,8894848E-001	3,9932444E-003
02/09/2025 17:00:15.1437	3,1672299E+002	2,8945607E-001	4,2405548E-003
02/09/2025 17:00:15.6084	2,5169135E+002	2,9007587E-001	4,2915377E-003
02/09/2025 17:00:16.0770	1,9980818E+002	2,9057401E-001	4,3662088E-003
02/09/2025 17:00:16.5466	1,5862943E+002	2,9140589E-001	4,7581354E-003
02/09/2025 17:00:17.0112	1,2600809E+002	2,9193518E-001	5,0002201E-003
02/09/2025 17:00:17.4785	1,0016024E+002	2,9275021E-001	5,2225804E-003
02/09/2025 17:00:17.9490	7,9516548E+001	2,9342672E-001	5,3745303E-003
02/09/2025 17:00:18.4276	6,3160763E+001	2,9421777E-001	5,6746211E-003
02/09/2025 17:00:18.8940	5,0208866E+001	2,9509485E-001	6,0408348E-003
02/09/2025 17:00:19.3615	3,9859695E+001	2,9582381E-001	6,2466678E-003
02/09/2025 17:00:19.8073	3,1672298E+001	2,9686430E-001	6,7114425E-003
02/09/2025 17:00:20.2727	2,5136747E+001	2,9761875E-001	6,9812606E-003
02/09/2025 17:00:20.7410	1,9980818E+001	2,9862890E-001	7,2975275E-003
02/09/2025 17:00:21.1850	1,5857577E+001	2,9949260E-001	7,7516115E-003
02/09/2025 17:00:21.7319	1,2600809E+001	3,0073467E-001	8,2462775E-003
02/09/2025 17:00:22.1975	1,0016025E+001	3,0184555E-001	8,9061232E-003
02/09/2025 17:00:22.7722	7,9557004E+000	3,0309638E-001	9,2764189E-003
02/09/2025 17:00:23.1522	6,3105812E+000	3,0435303E-001	9,7524766E-003
02/09/2025 17:00:23.6212	5,0144420E+000	3,0532658E-001	1,0529823E-002
02/09/2025 17:00:24.1947	3,9859698E+000	3,0707455E-001	1,1486553E-002
02/09/2025 17:00:24.9028	3,1655185E+000	3,0839661E-001	1,2426411E-002
02/09/2025 17:00:25.7808	2,5136747E+000	3,1002790E-001	1,3026370E-002
02/09/2025 17:00:26.8738	1,9970603E+000	3,1142181E-001	1,4254266E-002
02/09/2025 17:00:28.2402	1,5846856E+000	3,1297705E-001	1,5771447E-002
02/09/2025 17:00:30.7920	1,2596742E+000	3,1456816E-001	1,7290756E-002
02/09/2025 17:00:32.9303	1,0000639E+000	3,1673390E-001	1,9324925E-002
02/09/2025 17:00:35.6132	7,9443753E-001	3,1835049E-001	2,2209806E-002
02/09/2025 17:00:38.9786	6,3126212E-001	3,2056707E-001	2,5070699E-002
02/09/2025 17:00:43.2094	5,0118679E-001	3,2301116E-001	2,8167253E-002
02/09/2025 17:00:48.5164	3,9867833E-001	3,2603127E-001	3,1897608E-002
02/09/2025 17:00:55.1979	3,1619310E-001	3,2961905E-001	3,7881542E-002
02/09/2025 17:01:03.5994	2,5117347E-001	3,3365563E-001	4,3340117E-002
02/09/2025 17:01:14.1514	1,9980818E-001	3,3878517E-001	4,9149033E-002
02/09/2025 17:01:27.4462	1,5846856E-001	3,4556490E-001	5,6455098E-002
02/09/2025 17:01:44.1712	1,2590654E-001	3,5260943E-001	6,5147370E-002
02/09/2025 17:02:05.1916	1,0013975E-001	3,6000946E-001	7,4090637E-002
02/09/2025 17:02:31.6872	7,9421178E-002	3,6900115E-001	8,3093315E-002
02/09/2025 17:03:05.0271	6,3101739E-002	3,7997258E-001	9,3523264E-002
02/09/2025 17:03:46.9668	5,0154075E-002	3,9333561E-001	1,0539775E-001
02/09/2025 17:04:39.8019	3,9804459E-002	4,0658027E-001	1,1938896E-001
02/09/2025 17:05:46.3618	3,1592205E-002	4,2116261E-001	1,3320221E-001
02/09/2025 17:07:09.9812	2,5144994E-002	4,3910828E-001	1,4747602E-001
02/09/2025 17:08:55.3702	1,9949391E-002	4,6102464E-001	1,6496667E-001
02/09/2025 17:11:07.9191	1,5860692E-002	4,8476624E-001	1,8534286E-001
02/09/2025 17:13:55.0684	1,2576789E-002	5,1054829E-001	2,0652413E-001
02/09/2025 17:17:25.0892	1,0009170E-002	5,4013854E-001	2,2703828E-001
02/09/2025 17:17:25.9256	1,9999814E+005	2,6252368E-001	-2,2032205E-002
02/09/2025 17:17:26.3596	1,5885727E+005	2,6911211E-001	-1,3835169E-002
02/09/2025 17:17:26.7936	1,2618765E+005	2,7451083E-001	-9,0785744E-003
02/09/2025 17:17:27.0876	1,0022640E+005	2,7727097E-001	-5,2341372E-003
02/09/2025 17:17:28.7816	7,9609563E+004	2,7872270E-001	-3,0673132E-003
02/09/2025 17:17:30.4766	6,3233004E+004	2,7950996E-001	-2,0128903E-003
02/09/2025 17:17:31.6106	5,0224539E+004	2,8024089E-001	-1,2170029E-003
02/09/2025 17:17:32.3246	3,9897566E+004	2,8076398E-001	-5,8853166E-004
02/09/2025 17:17:32.7586	3,1686090E+004	2,8093418E-001	-2,6820446E-004
02/09/2025 17:17:33.1926	2,5172580E+004	2,8132600E-001	3,3894065E-004
02/09/2025 17:17:33.6266	1,9995176E+004	2,8139088E-001	7,1126031E-004
02/09/2025 17:17:34.0606	1,5884798E+004	2,8164580E-001	1,0197182E-003
02/09/2025 17:17:34.4946	1,2618766E+004	2,8195107E-001	1,5438466E-003
02/09/2025 17:17:34.9286	1,0020785E+004	2,8231046E-001	1,8682717E-003
02/09/2025 17:17:35.4198	7,9597607E+003	2,8264055E-001	1,9700164E-003
02/09/2025 17:17:36.0014	6,3238188E+003	2,8291824E-001	2,1556111E-003
02/09/2025 17:17:36.4718	5,0216069E+003	2,8329965E-001	2,2554535E-003
02/09/2025 17:17:37.1631	3,9861731E+003	2,8373775E-001	2,6105433E-003
02/09/2025 17:17:37.6300	3,1669595E+003	2,8407407E-001	2,6538537E-003
02/09/2025 17:17:38.0958	2,5158047E+003	2,8449067E-001	2,7825956E-003
02/09/2025 17:17:38.5640	1,9980818E+003	2,8496164E-001	2,9502024E-003
02/09/2025 17:17:39.0310	1,5884750E+003	2,8546327E-001	3,1680050E-003
02/09/2025 17:17:39.4968	1,2604036E+003	2,8595948E-001	3,1485686E-003
02/09/2025 17:17:39.9635	1,0016024E+003	2,8629977E-001	3,2631522E-003
02/09/2025 17:17:40.4308	7,9525409E+002	2,8673664E-001	3,4946678E-003
02/09/2025 17:17:40.8973	6,3181964E+002	2,8739464E-001	3,6876525E-003
02/09/2025 17:17:41.3630	5,0208865E+002	2,8791147E-001	3,8448963E-003
02/09/2025 17:17:41.8306	3,9859698E+002	2,8834817E-001	4,0102438E-003
02/09/2025 17:17:42.2958	3,1672299E+002	2,8895938E-001	3,9611212E-003
02/09/2025 17:17:42.7605	2,5169135E+002	2,8955126E-001	4,2852112E-003
02/09/2025 17:17:43.2291	1,9980818E+002	2,9021510E-001	4,4095861E-003
02/09/2025 17:17:43.6986	1,5862943E+002	2,9098734E-001	4,6845344E-003
02/09/2025 17:17:44.1633	1,2600809E+002	2,9157251E-001	4,9114437E-003
02/09/2025 17:17:44.6306	1,0016024E+002	2,9219544E-001	5,1711630E-003
02/09/2025 17:17:45.1010	7,9516548E+001	2,9286230E-001	5,4153842E-003
02/09/2025 17:17:45.5797	6,3160763E+001	2,9368299E-001	5,6625297E-003
02/09/2025 17:17:46.0460	5,0208866E+001	2,9434642E-001	6,0109328E-003
02/09/2025 17:17:46.5135	3,9859695E+001	2,9531109E-001	6,1768307E-003
02/09/2025 17:17:46.9593	3,1672298E+001	2,9623851E-001	6,3555152E-003
02/09/2025 17:17:47.4248	2,5136747E+001	2,9708201E-001	6,7770169E-003
02/09/2025 17:17:47.8930	1,9980818E+001	2,9805288E-001	7,3281848E-003
02/09/2025 17:17:48.3370	1,5857577E+001	2,9917565E-001	7,7562151E-003
02/09/2025 17:17:48.8839	1,2600809E+001	3,0017057E-001	8,1693251E-003
02/09/2025 17:17:49.3495	1,0016025E+001	3,0130509E-001	8,7752268E-003
02/09/2025 17:17:49.9243	7,9557004E+000	3,0247819E-001	9,3646254E-003
02/09/2025 17:17:50.3043	6,3105812E+000	3,0374590E-001	9,8889209E-003
02/09/2025 17:17:50.7723	5,0144420E+000	3,0495504E-001	1,0528244E-002
02/09/2025 17:17:51.3458	3,9859698E+000	3,0649319E-001	1,1416086E-002
02/09/2025 17:17:52.0538	3,1655185E+000	3,0768925E-001	1,2221112E-002
02/09/2025 17:17:52.9318	2,5136747E+000	3,0935565E-001	1,3149780E-002
02/09/2025 17:17:54.0248	1,9970603E+000	3,1070504E-001	1,4491189E-002
02/09/2025 17:17:55.3912	1,5846856E+000	3,1254548E-001	1,5484205E-002
02/09/2025 17:17:57.9431	1,2596742E+000	3,1400651E-001	1,7344709E-002
02/09/2025 17:18:00.0812	1,0000639E+000	3,1573272E-001	1,9033764E-002
02/09/2025 17:18:02.7632	7,9443753E-001	3,1752017E-001	2,1656604E-002
02/09/2025 17:18:06.1290	6,3126212E-001	3,2023284E-001	2,4915893E-002
02/09/2025 17:18:10.3582	5,0118679E-001	3,2241875E-001	2,8533561E-002
02/09/2025 17:18:15.6658	3,9867833E-001	3,2483056E-001	3,1998914E-002
02/09/2025 17:18:22.3462	3,1619310E-001	3,2926685E-001	3,7436996E-002
02/09/2025 17:18:30.7480	2,5117347E-001	3,3376363E-001	4,3452561E-002
02/09/2025 17:18:41.3002	1,9980818E-001	3,3825409E-001	4,9964432E-002
02/09/2025 17:18:54.5957	1,5846856E-001	3,4413251E-001	5,6613337E-002
02/09/2025 17:19:11.3218	1,2590654E-001	3,5169208E-001	6,4211704E-002
02/09/2025 17:19:32.3420	1,0013975E-001	3,6025631E-001	7,3490769E-002
02/09/2025 17:19:58.8367	7,9421178E-002	3,6907277E-001	8,3862655E-002
02/09/2025 17:20:32.1765	6,3101739E-002	3,7924460E-001	9,4514467E-002
02/09/2025 17:21:14.1151	5,0154075E-002	3,9153972E-001	1,0467217E-001
02/09/2025 17:22:06.9491	3,9804459E-002	4,0654266E-001	1,1784673E-001
02/09/2025 17:23:13.5091	3,1592205E-002	4,2222917E-001	1,3346906E-001
02/09/2025 17:24:37.1275	2,5144994E-002	4,3850857E-001	1,4920889E-001
02/09/2025 17:26:22.5165	1,9949391E-002	4,5840579E-001	1,6532217E-001
02/09/2025 17:28:35.0655	1,5860692E-002	4,8297763E-001	1,8334317E-001
02/09/2025 17:31:22.2158	1,2576789E-002	5,1126969E-001	2,0467147E-001
02/09/2025 17:34:52.2365	1,0009170E-002	5,4112512E-001	2,2756097E-001
02/09/2025 17:34:53.0726	1,9999814E+005	2,5449014E-001	-1,8206466E-002
02/09/2025 17:34:53.5066	1,5885727E+005	2,6653227E-001	-1,2360062E-002
02/09/2025 17:34:53.9406	1,2618765E+005	2,7284798E-001	-7,5375922E-003
02/09/2025 17:34:54.3746	1,0022640E+005	2,7666786E-001	-4,2955205E-003
02/09/2025 17:34:56.0686	7,9609563E+004	2,7837819E-001	-2,4278376E-003
02/09/2025 17:34:57.7626	6,3233004E+004	2,7922577E-001	-1,7665549E-003
02/09/2025 17:34:59.0366	5,0224539E+004	2,7974707E-001	-1,2358892E-003
02/09/2025 17:34:59.7516	3,9897566E+004	2,8019997E-001	-6,5362849E-004
02/09/2025 17:35:00.1856	3,1686090E+004	2,8058010E-001	-2,3314684E-004
02/09/2025 17:35:00.6196	2,5172580E+004	2,8082651E-001	2,9788795E-004
02/09/2025 17:35:01.0536	1,9995176E+004	2,8115126E-001	6,8241742E-004
02/09/2025 17:35:01.4876	1,5884798E+004	2,8134432E-001	1,1472281E-003
02/09/2025 17:35:01.9216	1,2618766E+004	2,8158644E-001	1,4205223E-003
02/09/2025 17:35:02.3556	1,0020785E+004	2,8190300E-001	1,8439241E-003
02/09/2025 17:35:02.8469	7,9597607E+003	2,8208244E-001	1,9599553E-003
02/09/2025 17:35:03.4284	6,3238188E+003	2,8248411E-001	2,2352154E-003
02/09/2025 17:35:03.8978	5,0216069E+003	2,8290868E-001	2,4103664E-003
02/09/2025 17:35:04.5891	3,9861731E+003	2,8322875E-001	2,4701061E-003
02/09/2025 17:35:05.0561	3,1669595E+003	2,8369579E-001	2,7154244E-003
02/09/2025 17:35:05.5219	2,5158047E+003	2,8402796E-001	2,7508277E-003
02/09/2025 17:35:05.9901	1,9980818E+003	2,8449550E-001	2,9099490E-003
02/09/2025 17:35:06.4571	1,5884750E+003	2,8504959E-001	3,0709589E-003
02/09/2025 17:35:06.9228	1,2604036E+003	2,8541854E-001	3,1710581E-003
02/09/2025 17:35:07.3896	1,0016024E+003	2,8580332E-001	3,1995326E-003
02/09/2025 17:35:07.8569	7,9525409E+002	2,8641626E-001	3,6446054E-003
02/09/2025 17:35:08.3233	6,3181964E+002	2,8685564E-001	3,7114322E-003
02/09/2025 17:35:08.7901	5,0208865E+002	2,8747466E-001	3,9902716E-003
02/09/2025 17:35:09.2576	3,9859698E+002	2,8795549E-001	4,0667676E-003
02/09/2025 17:35:09.7228	3,1672299E+002	2,8858286E-001	4,0614409E-003
02/09/2025 17:35:10.1876	2,5169135E+002	2,8918958E-001	4,1964273E-003
02/09/2025 17:35:10.6561	1,9980818E+002	2,8978214E-001	4,4359923E-003
02/09/2025 17:35:11.1256	1,5862943E+002	2,9041171E-001	4,6810596E-003
02/09/2025 17:35:11.5903	1,2600809E+002	2,9093900E-001	4,9670357E-003
02/09/2025 17:35:12.0576	1,0016024E+002	2,9181388E-001	5,0481819E-003
02/09/2025 17:35:12.5281	7,9516548E+001	2,9264629E-001	5,2587031E-003
02/09/2025 17:35:13.0067	6,3160763E+001	2,9322377E-001	5,6210239E-003
02/09/2025 17:35:13.4731	5,0208866E+001	2,9408625E-001	5,8512636E-003
02/09/2025 17:35:13.9406	3,9859695E+001	2,9489088E-001	6,1427467E-003
02/09/2025 17:35:14.3863	3,1672298E+001	2,9575765E-001	6,5849377E-003
02/09/2025 17:35:14.8518	2,5136747E+001	2,9661262E-001	6,8748575E-003
02/09/2025 17:35:15.3201	1,9980818E+001	2,9743856E-001	7,2913943E-003
02/09/2025 17:35:15.7641	1,5857577E+001	2,9859689E-001	7,7132857E-003
02/09/2025 17:35:16.3110	1,2600809E+001	2,9975483E-001	8,1667453E-003
02/09/2025 17:35:16.7766	1,0016025E+001	3,0082285E-001	8,8240374E-003
02/09/2025 17:35:17.3513	7,9557004E+000	3,0196881E-001	9,2816381E-003
02/09/2025 17:35:17.7313	6,3105812E+000	3,0328003E-001	9,9004311E-003
02/09/2025 17:35:18.2003	5,0144420E+000	3,0450869E-001	1,0532013E-002
02/09/2025 17:35:18.7738	3,9859698E+000	3,0594060E-001	1,1524014E-002
02/09/2025 17:35:19.4819	3,1655185E+000	3,0716658E-001	1,2312233E-002
02/09/2025 17:35:20.3598	2,5136747E+000	3,0886230E-001	1,3106677E-002
02/09/2025 17:35:21.4529	1,9970603E+000	3,1022555E-001	1,4471962E-002
02/09/2025 17:35:22.8193	1,5846856E+000	3,1204489E-001	1,5502253E-002
02/09/2025 17:35:25.3711	1,2596742E+000	3,1367773E-001	1,7353298E-002
02/09/2025 17:35:27.5093	1,0000639E+000	3,1520697E-001	1,9142110E-002
02/09/2025 17:35:30.1902	7,9443753E-001	3,1703201E-001	2,1620916E-002
02/09/2025 17:35:33.5559	6,3126212E-001	3,1970209E-001	2,4824044E-002
02/09/2025 17:35:37.7852	5,0118679E-001	3,2192379E-001	2,8449485E-002
02/09/2025 17:35:43.0929	3,9867833E-001	3,2432440E-001	3,2042030E-002
02/09/2025 17:35:49.7733	3,1619310E-001	3,2882571E-001	3,7327144E-002
02/09/2025 17:35:58.1750	2,5117347E-001	3,3341855E-001	4,3396760E-002
02/09/2025 17:36:08.7273	1,9980818E-001	3,3794767E-001	4,9996398E-002
02/09/2025 17:36:22.0228	1,5846856E-001	3,4363061E-001	5,6683894E-002
02/09/2025 17:36:38.7487	1,2590654E-001	3,5114560E-001	6,4156875E-002
02/09/2025 17:36:59.7690	1,0013975E-001	3,5978180E-001	7,3299766E-002
02/09/2025 17:37:26.2636	7,9421178E-002	3,6883262E-001	8,3819576E-002
02/09/2025 17:37:59.6033	6,3101739E-002	3,7893981E-001	9,4661936E-002
02/09/2025 17:38:41.5419	5,0154075E-002	3,9087719E-001	1,0474366E-001
02/09/2025 17:39:34.3770	3,9804459E-002	4,0593430E-001	1,1762462E-001
02/09/2025 17:40:40.9379	3,1592205E-002	4,2195255E-001	1,3315326E-001
02/09/2025 17:42:04.5573	2,5144994E-002	4,3826154E-001	1,4922956E-001
02/09/2025 17:43:49.9462	1,9949391E-002	4,5791116E-001	1,6547915E-001
02/09/2025 17:46:02.4941	1,5860692E-002	4,8233795E-001	1,8313262E-001
02/09/2025 17:48:49.6435	1,2576789E-002	5,1088369E-001	2,0415875E-001
02/09/2025 17:52:19.6642	1,0009170E-002	5,4110569E-001	2,2728306E-001
02/09/2025 17:52:20.4987	1,9999814E+005	2,5432223E-001	-1,9560106E-002
02/09/2025 17:52:20.9327	1,5885727E+005	2,6670897E-001	-1,1238014E-002
02/09/2025 17:52:21.3667	1,2618765E+005	2,7348650E-001	-7,4525396E-003
02/09/2025 17:52:21.8007	1,0022640E+005	2,7647749E-001	-4,7149663E-003
02/09/2025 17:52:23.4947	7,9609563E+004	2,7799258E-001	-2,5825619E-003
02/09/2025 17:52:25.1887	6,3233004E+004	2,7889124E-001	-1,8114569E-003
02/09/2025 17:52:26.3227	5,0224539E+004	2,7960107E-001	-1,1352783E-003
02/09/2025 17:52:27.0367	3,9897566E+004	2,7997673E-001	-7,8692060E-004
02/09/2025 17:52:27.4707	3,1686090E+004	2,8029740E-001	-1,4294533E-004
02/09/2025 17:52:27.9047	2,5172580E+004	2,8071085E-001	3,3806358E-004
02/09/2025 17:52:28.3387	1,9995176E+004	2,8077948E-001	7,3377276E-004
02/09/2025 17:52:28.7727	1,5884798E+004	2,8112739E-001	1,0848127E-003
02/09/2025 17:52:29.2077	1,2618766E+004	2,8139654E-001	1,3253425E-003
02/09/2025 17:52:29.6417	1,0020785E+004	2,8156537E-001	1,7236915E-003
02/09/2025 17:52:30.1329	7,9597607E+003	2,8188613E-001	2,0097720E-003
02/09/2025 17:52:30.7145	6,3238188E+003	2,8223750E-001	2,2414913E-003
02/09/2025 17:52:31.1839	5,0216069E+003	2,8262949E-001	2,3957063E-003
02/09/2025 17:52:31.8751	3,9861731E+003	2,8297085E-001	2,5602507E-003
02/09/2025 17:52:32.3422	3,1669595E+003	2,8343341E-001	2,6508099E-003
02/09/2025 17:52:32.8079	2,5158047E+003	2,8370190E-001	2,7475080E-003
02/09/2025 17:52:33.2761	1,9980818E+003	2,8431836E-001	2,9473987E-003
02/09/2025 17:52:33.7431	1,5884750E+003	2,8482702E-001	3,1100409E-003
02/09/2025 17:52:34.2089	1,2604036E+003	2,8516859E-001	3,1587381E-003
02/09/2025 17:52:34.6756	1,0016024E+003	2,8550130E-001	3,3437186E-003
02/09/2025 17:52:35.1439	7,9525409E+002	2,8608903E-001	3,5187909E-003
02/09/2025 17:52:35.6104	6,3181964E+002	2,8668305E-001	3,4546389E-003
02/09/2025 17:52:36.0771	5,0208865E+002	2,8717303E-001	3,7333432E-003
02/09/2025 17:52:36.5447	3,9859698E+002	2,8770563E-001	3,9010313E-003
02/09/2025 17:52:37.0099	3,1672299E+002	2,8819618E-001	4,0429127E-003
02/09/2025 17:52:37.4746	2,5169135E+002	2,8884041E-001	4,3450482E-003
02/09/2025 17:52:37.9431	1,9980818E+002	2,8953144E-001	4,5128828E-003
02/09/2025 17:52:38.4127	1,5862943E+002	2,9011565E-001	4,5767794E-003
02/09/2025 17:52:38.8773	1,2600809E+002	2,9084778E-001	4,8245671E-003
02/09/2025 17:52:39.3446	1,0016024E+002	2,9148394E-001	5,1659485E-003
02/09/2025 17:52:39.8152	7,9516548E+001	2,9231659E-001	5,1847668E-003
02/09/2025 17:52:40.2938	6,3160763E+001	2,9299751E-001	5,4583927E-003
02/09/2025 17:52:40.7601	5,0208866E+001	2,9372448E-001	5,8549815E-003
02/09/2025 17:52:41.2276	3,9859695E+001	2,9462174E-001	6,1222506E-003
02/09/2025 17:52:41.6734	3,1672298E+001	2,9554522E-001	6,6347569E-003
02/09/2025 17:52:42.1389	2,5136747E+001	2,9638231E-001	6,9227568E-003
02/09/2025 17:52:42.6072	1,9980818E+001	2,9738280E-001	7,1966564E-003
02/09/2025 17:52:43.0511	1,5857577E+001	2,9833668E-001	7,7882414E-003
02/09/2025 17:52:43.5981	1,2600809E+001	2,9947311E-001	8,2105519E-003
02/09/2025 17:52:44.0637	1,0016025E+001	3,0056712E-001	8,7477677E-003
02/09/2025 17:52:44.6394	7,9557004E+000	3,0168018E-001	9,2258397E-003
02/09/2025 17:52:45.0194	6,3105812E+000	3,0299065E-001	9,9250088E-003
02/09/2025 17:52:45.4884	5,0144420E+000	3,0428457E-001	1,0773875E-002
02/09/2025 17:52:46.0618	3,9859698E+000	3,0552042E-001	1,1368965E-002
02/09/2025 17:52:46.7699	3,1655185E+000	3,0704722E-001	1,2059795E-002
02/09/2025 17:52:47.6479	2,5136747E+000	3,0861455E-001	1,3383218E-002
02/09/2025 17:52:48.7409	1,9970603E+000	3,0991727E-001	1,4500534E-002
02/09/2025 17:52:50.1073	1,5846856E+000	3,1169197E-001	1,5483453E-002
02/09/2025 17:52:52.6592	1,2596742E+000	3,1336224E-001	1,7483849E-002
02/09/2025 17:52:54.7975	1,0000639E+000	3,1492293E-001	1,9123442E-002
02/09/2025 17:52:57.4804	7,9443753E-001	3,1756449E-001	2,1374702E-002
02/09/2025 17:53:00.8461	6,3126212E-001	3,1956419E-001	2,4990328E-002
02/09/2025 17:53:05.0753	5,0118679E-001	3,2159907E-001	2,8631978E-002
02/09/2025 17:53:10.3829	3,9867833E-001	3,2479832E-001	3,1758022E-002
02/09/2025 17:53:17.0632	3,1619310E-001	3,2832521E-001	3,7130192E-002
02/09/2025 17:53:25.4649	2,5117347E-001	3,3282652E-001	4,3348856E-002
02/09/2025 17:53:36.0160	1,9980818E-001	3,3751562E-001	4,9709506E-002
02/09/2025 17:53:49.3099	1,5846856E-001	3,4345701E-001	5,6348532E-002
02/09/2025 17:54:06.0349	1,2590654E-001	3,5111123E-001	6,4180553E-002
02/09/2025 17:54:27.0553	1,0013975E-001	3,5946763E-001	7,3614746E-002
02/09/2025 17:54:53.5510	7,9421178E-002	3,6820418E-001	8,3790578E-002
02/09/2025 17:55:26.8909	6,3101739E-002	3,7841374E-001	9,4360955E-002
02/09/2025 17:56:08.8295	5,0154075E-002	3,9093271E-001	1,0452089E-001
02/09/2025 17:57:01.6646	3,9804459E-002	4,0583158E-001	1,1793131E-001