File: data/phase_2a/Sergey/3/8.3/01 eis/C7D1_mr 0,1MFeCN6_in_1M_KCl_3306mL_symmetric_balanced_4_point_PEIS_10mV_C16.txt
time/s	freq/Hz	Re(Z)/Ohm	-Im(Z)/Ohm
03/09/2025 08:17:44.2055	1,9999814E+005	2,5950956E-001	-1,8377338E-002
03/09/2025 08:17:44.6405	1,5885727E+005	2,7128944E-001	-1,1774965E-002
03/09/2025 08:17:45.0745	1,2618765E+005	2,7896744E-001	-7,2305365E-003
03/09/2025 08:17:45.3685	1,0022640E+005	2,8231889E-001	-4,4151936E-003
03/09/2025 08:17:47.0625	7,9609563E+004	2,8389770E-001	-2,5095693E-003
03/09/2025 08:17:48.7565	6,3233004E+004	2,8477523E-001	-1,7848657E-003
03/09/2025 08:17:50.0305	5,0224539E+004	2,8539839E-001	-1,3235749E-003
03/09/2025 08:17:50.7445	3,9897566E+004	2,8595713E-001	-6,8939512E-004
03/09/2025 08:17:51.1785	3,1686090E+004	2,8617287E-001	-1,5478586E-004
03/09/2025 08:17:51.6125	2,5172580E+004	2,8654319E-001	2,8038252E-004
03/09/2025 08:17:52.0465	1,9995176E+004	2,8659293E-001	5,9229444E-004
03/09/2025 08:17:52.4805	1,5884798E+004	2,8690842E-001	9,7476505E-004
03/09/2025 08:17:52.9145	1,2618766E+004	2,8705505E-001	1,2652106E-003
03/09/2025 08:17:53.3485	1,0020785E+004	2,8740007E-001	1,6830618E-003
03/09/2025 08:17:53.8398	7,9597607E+003	2,8767160E-001	1,7695477E-003
03/09/2025 08:17:54.4213	6,3238188E+003	2,8798848E-001	2,0130682E-003
03/09/2025 08:17:54.8907	5,0216069E+003	2,8825927E-001	2,2355416E-003
03/09/2025 08:17:55.5819	3,9861731E+003	2,8870812E-001	2,3432774E-003
03/09/2025 08:17:56.0490	3,1669595E+003	2,8915831E-001	2,6024529E-003
03/09/2025 08:17:56.5147	2,5158047E+003	2,8955385E-001	2,7296739E-003
03/09/2025 08:17:56.9829	1,9980818E+003	2,8986752E-001	2,8162093E-003
03/09/2025 08:17:57.4500	1,5884750E+003	2,9030627E-001	2,9000677E-003
03/09/2025 08:17:57.9157	1,2604036E+003	2,9077521E-001	2,9459232E-003
03/09/2025 08:17:58.3834	1,0016024E+003	2,9120016E-001	3,1806016E-003
03/09/2025 08:17:58.8507	7,9525409E+002	2,9155317E-001	3,4681540E-003
03/09/2025 08:17:59.3172	6,3181964E+002	2,9210910E-001	3,4649721E-003
03/09/2025 08:17:59.7839	5,0208865E+002	2,9254079E-001	3,6861929E-003
03/09/2025 08:18:00.2515	3,9859698E+002	2,9311812E-001	3,8378036E-003
03/09/2025 08:18:00.7167	3,1672299E+002	2,9373264E-001	4,0348088E-003
03/09/2025 08:18:01.1814	2,5169135E+002	2,9441828E-001	4,2402865E-003
03/09/2025 08:18:01.6499	1,9980818E+002	2,9469332E-001	4,2888722E-003
03/09/2025 08:18:02.1195	1,5862943E+002	2,9534557E-001	4,5318459E-003
03/09/2025 08:18:02.5841	1,2600809E+002	2,9614606E-001	4,6770251E-003
03/09/2025 08:18:03.0514	1,0016024E+002	2,9677832E-001	4,9022753E-003
03/09/2025 08:18:03.5220	7,9516548E+001	2,9749668E-001	5,2819969E-003
03/09/2025 08:18:04.0006	6,3160763E+001	2,9822272E-001	5,6006983E-003
03/09/2025 08:18:04.4669	5,0208866E+001	2,9892397E-001	5,7635098E-003
03/09/2025 08:18:04.9345	3,9859695E+001	2,9993790E-001	6,0472935E-003
03/09/2025 08:18:05.3802	3,1672298E+001	3,0059439E-001	6,4634364E-003
03/09/2025 08:18:05.8456	2,5136747E+001	3,0166218E-001	6,9246851E-003
03/09/2025 08:18:06.3139	1,9980818E+001	3,0258602E-001	7,3275534E-003
03/09/2025 08:18:06.7579	1,5857577E+001	3,0360174E-001	7,6276069E-003
03/09/2025 08:18:07.3048	1,2600809E+001	3,0468902E-001	7,9742111E-003
03/09/2025 08:18:07.7704	1,0016025E+001	3,0588958E-001	8,5778842E-003
03/09/2025 08:18:08.3452	7,9557004E+000	3,0716977E-001	8,9733647E-003
03/09/2025 08:18:08.7252	6,3105812E+000	3,0858141E-001	9,4147455E-003
03/09/2025 08:18:09.1942	5,0144420E+000	3,0963328E-001	9,9133132E-003
03/09/2025 08:18:09.7676	3,9859698E+000	3,1089303E-001	1,0278572E-002
03/09/2025 08:18:10.4758	3,1655185E+000	3,1204057E-001	1,1167357E-002
03/09/2025 08:18:11.3537	2,5136747E+000	3,1360951E-001	1,1914080E-002
03/09/2025 08:18:12.4467	1,9970603E+000	3,1466070E-001	1,3032808E-002
03/09/2025 08:18:13.8131	1,5846856E+000	3,1577268E-001	1,4173288E-002
03/09/2025 08:18:16.3649	1,2596742E+000	3,1719306E-001	1,6604085E-002
03/09/2025 08:18:18.5033	1,0000639E+000	3,1890890E-001	1,8383956E-002
03/09/2025 08:18:21.1862	7,9443753E-001	3,2019585E-001	2,0854980E-002
03/09/2025 08:18:24.5516	6,3126212E-001	3,2231781E-001	2,4055181E-002
03/09/2025 08:18:28.7824	5,0118679E-001	3,2511714E-001	2,7981643E-002
03/09/2025 08:18:34.0894	3,9867833E-001	3,2778859E-001	3,2588229E-002
03/09/2025 08:18:40.7707	3,1619310E-001	3,3133161E-001	3,7235584E-002
03/09/2025 08:18:49.1713	2,5117347E-001	3,3639324E-001	4,2779300E-002
03/09/2025 08:18:59.7234	1,9980818E-001	3,4201011E-001	4,9595296E-002
03/09/2025 08:19:13.0183	1,5846856E-001	3,4785104E-001	5,6950662E-002
03/09/2025 08:19:29.7433	1,2590654E-001	3,5492572E-001	6,4094558E-002
03/09/2025 08:19:50.7637	1,0013975E-001	3,6411363E-001	7,1881689E-002
03/09/2025 08:20:17.2593	7,9421178E-002	3,7508488E-001	8,1536271E-002
03/09/2025 08:20:50.5991	6,3101739E-002	3,8667148E-001	9,2159070E-002
03/09/2025 08:21:32.5378	5,0154075E-002	3,9900881E-001	1,0246543E-001
03/09/2025 08:22:25.3718	3,9804459E-002	4,1479346E-001	1,1229169E-001
03/09/2025 08:23:31.9328	3,1592205E-002	4,3394864E-001	1,2386277E-001
03/09/2025 08:24:55.5512	2,5144994E-002	4,5633000E-001	1,3709515E-001
03/09/2025 08:26:40.9402	1,9949391E-002	4,8379666E-001	1,4759500E-001
03/09/2025 08:28:53.4892	1,5860692E-002	5,1686090E-001	1,5177214E-001
03/09/2025 08:31:40.6394	1,2576789E-002	5,5355978E-001	1,4858171E-001
03/09/2025 08:35:10.6602	1,0009170E-002	5,8607131E-001	1,3680655E-001
03/09/2025 08:35:11.4965	1,9999814E+005	2,5918788E-001	-8,8259261E-003
03/09/2025 08:35:11.9305	1,5885727E+005	2,7071983E-001	-3,9707157E-003
03/09/2025 08:35:12.3645	1,2618765E+005	2,7817237E-001	-1,9744644E-003
03/09/2025 08:35:12.7985	1,0022640E+005	2,8223851E-001	-1,9646906E-003
03/09/2025 08:35:14.4925	7,9609563E+004	2,8402230E-001	-1,8124215E-003
03/09/2025 08:35:16.1865	6,3233004E+004	2,8482723E-001	-1,1597835E-003
03/09/2025 08:35:17.7405	5,0224539E+004	2,8537157E-001	-4,9049407E-004
03/09/2025 08:35:18.4545	3,9897566E+004	2,8586239E-001	-4,5463617E-004
03/09/2025 08:35:18.8895	3,1686090E+004	2,8609788E-001	8,7719411E-005
03/09/2025 08:35:19.3235	2,5172580E+004	2,8634125E-001	5,1961356E-004
03/09/2025 08:35:19.7575	1,9995176E+004	2,8665140E-001	7,7425997E-004
03/09/2025 08:35:20.1915	1,5884798E+004	2,8688088E-001	1,0551851E-003
03/09/2025 08:35:20.6255	1,2618766E+004	2,8701076E-001	1,1793089E-003
03/09/2025 08:35:21.0595	1,0020785E+004	2,8730389E-001	1,6168663E-003
03/09/2025 08:35:21.5508	7,9597607E+003	2,8766790E-001	1,9720148E-003
03/09/2025 08:35:22.1344	6,3238188E+003	2,8800297E-001	1,9931009E-003
03/09/2025 08:35:22.6047	5,0216069E+003	2,8830400E-001	2,2225184E-003
03/09/2025 08:35:23.2970	3,9861731E+003	2,8865162E-001	2,3972073E-003
03/09/2025 08:35:23.7640	3,1669595E+003	2,8905356E-001	2,4573531E-003
03/09/2025 08:35:24.2297	2,5158047E+003	2,8944856E-001	2,7120137E-003
03/09/2025 08:35:24.6980	1,9980818E+003	2,8988007E-001	2,6763699E-003
03/09/2025 08:35:25.1650	1,5884750E+003	2,9028827E-001	2,9478697E-003
03/09/2025 08:35:25.6308	1,2604036E+003	2,9074419E-001	3,0104418E-003
03/09/2025 08:35:26.0975	1,0016024E+003	2,9117894E-001	3,2761237E-003
03/09/2025 08:35:26.5647	7,9525409E+002	2,9173523E-001	3,3132690E-003
03/09/2025 08:35:27.0312	6,3181964E+002	2,9213589E-001	3,3598656E-003
03/09/2025 08:35:27.4970	5,0208865E+002	2,9267260E-001	3,6965883E-003
03/09/2025 08:35:27.9645	3,9859698E+002	2,9308575E-001	3,8221483E-003
03/09/2025 08:35:28.4297	3,1672299E+002	2,9364169E-001	4,0526772E-003
03/09/2025 08:35:28.8944	2,5169135E+002	2,9426783E-001	4,3024160E-003
03/09/2025 08:35:29.3630	1,9980818E+002	2,9493809E-001	4,1897567E-003
03/09/2025 08:35:29.8325	1,5862943E+002	2,9538915E-001	4,5225206E-003
03/09/2025 08:35:30.2972	1,2600809E+002	2,9616144E-001	4,7052721E-003
03/09/2025 08:35:30.7645	1,0016024E+002	2,9675537E-001	4,9795681E-003
03/09/2025 08:35:31.2350	7,9516548E+001	2,9746217E-001	5,2433596E-003
03/09/2025 08:35:31.7136	6,3160763E+001	2,9831079E-001	5,5428734E-003
03/09/2025 08:35:32.1800	5,0208866E+001	2,9902983E-001	5,8316835E-003
03/09/2025 08:35:32.6475	3,9859695E+001	2,9988322E-001	6,0422951E-003
03/09/2025 08:35:33.0933	3,1672298E+001	3,0066347E-001	6,6093118E-003
03/09/2025 08:35:33.5587	2,5136747E+001	3,0152932E-001	6,8279593E-003
03/09/2025 08:35:34.0270	1,9980818E+001	3,0250636E-001	7,2922995E-003
03/09/2025 08:35:34.4710	1,5857577E+001	3,0364135E-001	7,5456495E-003
03/09/2025 08:35:35.0179	1,2600809E+001	3,0466902E-001	7,9372618E-003
03/09/2025 08:35:35.4835	1,0016025E+001	3,0588001E-001	8,6250659E-003
03/09/2025 08:35:36.0582	7,9557004E+000	3,0715203E-001	8,9304950E-003
03/09/2025 08:35:36.4383	6,3105812E+000	3,0836576E-001	9,3943197E-003
03/09/2025 08:35:36.9072	5,0144420E+000	3,0957028E-001	9,9341348E-003
03/09/2025 08:35:37.4807	3,9859698E+000	3,1078780E-001	1,0474202E-002
03/09/2025 08:35:38.1888	3,1655185E+000	3,1221029E-001	1,1040398E-002
03/09/2025 08:35:39.0668	2,5136747E+000	3,1346208E-001	1,1723892E-002
03/09/2025 08:35:40.1597	1,9970603E+000	3,1463560E-001	1,2687401E-002
03/09/2025 08:35:41.5261	1,5846856E+000	3,1573620E-001	1,4250225E-002
03/09/2025 08:35:44.0770	1,2596742E+000	3,1634420E-001	1,5415953E-002
03/09/2025 08:35:46.2151	1,0000639E+000	3,1817123E-001	1,8372320E-002
03/09/2025 08:35:48.8973	7,9443753E-001	3,1992060E-001	2,0748375E-002
03/09/2025 08:35:52.2607	6,3126212E-001	3,2211724E-001	2,3783479E-002
03/09/2025 08:35:56.4919	5,0118679E-001	3,2506809E-001	2,7895402E-002
03/09/2025 08:36:01.7996	3,9867833E-001	3,2789943E-001	3,2766767E-002
03/09/2025 08:36:08.4800	3,1619310E-001	3,3130085E-001	3,7514273E-002
03/09/2025 08:36:16.8817	2,5117347E-001	3,3610657E-001	4,2745616E-002
03/09/2025 08:36:27.4328	1,9980818E-001	3,4195045E-001	4,9345955E-002
03/09/2025 08:36:40.7267	1,5846856E-001	3,4812972E-001	5,6975015E-002
03/09/2025 08:36:57.4516	1,2590654E-001	3,5489804E-001	6,4446010E-002
03/09/2025 08:37:18.4719	1,0013975E-001	3,6370042E-001	7,2023317E-002
03/09/2025 08:37:44.9665	7,9421178E-002	3,7480646E-001	8,1120647E-002
03/09/2025 08:38:18.3063	6,3101739E-002	3,8666090E-001	9,1702700E-002
03/09/2025 08:39:00.2459	5,0154075E-002	3,9941546E-001	1,0268135E-001
03/09/2025 08:39:53.0799	3,9804459E-002	4,1463941E-001	1,1268817E-001
03/09/2025 08:40:59.6400	3,1592205E-002	4,3350402E-001	1,2365550E-001
03/09/2025 08:42:23.2584	2,5144994E-002	4,5644122E-001	1,3671358E-001
03/09/2025 08:44:08.6474	1,9949391E-002	4,8418629E-001	1,4784136E-001
03/09/2025 08:46:21.1963	1,5860692E-002	5,1657671E-001	1,5236846E-001
03/09/2025 08:49:08.3466	1,2576789E-002	5,5284929E-001	1,4857140E-001
03/09/2025 08:52:38.3674	1,0009170E-002	5,8521587E-001	1,3654470E-001
03/09/2025 08:52:39.2036	1,9999814E+005	2,6261058E-001	-6,4687831E-003
03/09/2025 08:52:39.6376	1,5885727E+005	2,7288809E-001	-2,9054026E-003
03/09/2025 08:52:40.0716	1,2618765E+005	2,7842349E-001	-1,6921475E-003
03/09/2025 08:52:40.5056	1,0022640E+005	2,8208062E-001	-1,5718091E-003
03/09/2025 08:52:42.1996	7,9609563E+004	2,8387684E-001	-1,6515236E-003
03/09/2025 08:52:43.8936	6,3233004E+004	2,8460041E-001	-9,6631289E-004
03/09/2025 08:52:45.4476	5,0224539E+004	2,8503731E-001	-7,0196280E-004
03/09/2025 08:52:46.1616	3,9897566E+004	2,8569436E-001	-1,7812327E-004
03/09/2025 08:52:46.5956	3,1686090E+004	2,8615192E-001	2,8097557E-004
03/09/2025 08:52:47.0296	2,5172580E+004	2,8627011E-001	5,2070874E-004
03/09/2025 08:52:47.4636	1,9995176E+004	2,8640434E-001	8,3278480E-004
03/09/2025 08:52:47.8976	1,5884798E+004	2,8650641E-001	1,0445665E-003
03/09/2025 08:52:48.3316	1,2618766E+004	2,8696635E-001	1,4765442E-003
03/09/2025 08:52:48.7656	1,0020785E+004	2,8726816E-001	1,7546217E-003
03/09/2025 08:52:49.2569	7,9597607E+003	2,8758723E-001	1,9392682E-003
03/09/2025 08:52:49.8384	6,3238188E+003	2,8782818E-001	2,1301149E-003
03/09/2025 08:52:50.3078	5,0216069E+003	2,8817138E-001	2,2884021E-003
03/09/2025 08:52:50.9990	3,9861731E+003	2,8859523E-001	2,3212233E-003
03/09/2025 08:52:51.4660	3,1669595E+003	2,8900602E-001	2,5049101E-003
03/09/2025 08:52:51.9318	2,5158047E+003	2,8928864E-001	2,7738414E-003
03/09/2025 08:52:52.4010	1,9980818E+003	2,8973895E-001	2,8659890E-003
03/09/2025 08:52:52.8700	1,5884750E+003	2,9004982E-001	2,9065444E-003
03/09/2025 08:52:53.3358	1,2604036E+003	2,9055929E-001	3,1805171E-003
03/09/2025 08:52:53.8025	1,0016024E+003	2,9099357E-001	3,2770738E-003
03/09/2025 08:52:54.2698	7,9525409E+002	2,9136047E-001	3,3767729E-003
03/09/2025 08:52:54.7363	6,3181964E+002	2,9198781E-001	3,3211769E-003
03/09/2025 08:52:55.2020	5,0208865E+002	2,9248998E-001	3,7365286E-003
03/09/2025 08:52:55.6696	3,9859698E+002	2,9298347E-001	3,8970460E-003
03/09/2025 08:52:56.1348	3,1672299E+002	2,9362306E-001	3,7844013E-003
03/09/2025 08:52:56.5995	2,5169135E+002	2,9403520E-001	4,0835519E-003
03/09/2025 08:52:57.0680	1,9980818E+002	2,9464445E-001	4,4024982E-003
03/09/2025 08:52:57.5376	1,5862943E+002	2,9519612E-001	4,5200381E-003
03/09/2025 08:52:58.0023	1,2600809E+002	2,9585382E-001	4,7701835E-003
03/09/2025 08:52:58.4695	1,0016024E+002	2,9658970E-001	4,9398416E-003
03/09/2025 08:52:58.9401	7,9516548E+001	2,9739410E-001	5,3378893E-003
03/09/2025 08:52:59.4187	6,3160763E+001	2,9813606E-001	5,5323839E-003
03/09/2025 08:52:59.8850	5,0208866E+001	2,9900274E-001	5,8001396E-003
03/09/2025 08:53:00.3525	3,9859695E+001	2,9965654E-001	6,1713271E-003
03/09/2025 08:53:00.7983	3,1672298E+001	3,0047917E-001	6,4826268E-003
03/09/2025 08:53:01.2638	2,5136747E+001	3,0146387E-001	6,7499354E-003
03/09/2025 08:53:01.7320	1,9980818E+001	3,0238014E-001	7,0684240E-003
03/09/2025 08:53:02.1760	1,5857577E+001	3,0344126E-001	7,4645230E-003
03/09/2025 08:53:02.7230	1,2600809E+001	3,0441275E-001	8,0843512E-003
03/09/2025 08:53:03.1885	1,0016025E+001	3,0561724E-001	8,4176287E-003
03/09/2025 08:53:03.7633	7,9557004E+000	3,0684519E-001	8,8781388E-003
03/09/2025 08:53:04.1433	6,3105812E+000	3,0812690E-001	9,3867388E-003
03/09/2025 08:53:04.6123	5,0144420E+000	3,0937091E-001	1,0007187E-002
03/09/2025 08:53:05.1858	3,9859698E+000	3,1068465E-001	1,0664345E-002
03/09/2025 08:53:05.8938	3,1655185E+000	3,1192076E-001	1,0898761E-002
03/09/2025 08:53:06.7718	2,5136747E+000	3,1329507E-001	1,2199978E-002
03/09/2025 08:53:07.8648	1,9970603E+000	3,1438047E-001	1,2994378E-002
03/09/2025 08:53:09.2311	1,5846856E+000	3,1568605E-001	1,4260329E-002
03/09/2025 08:53:11.7831	1,2596742E+000	3,1606486E-001	1,5954725E-002
03/09/2025 08:53:13.9213	1,0000639E+000	3,1819028E-001	1,8244721E-002
03/09/2025 08:53:16.6032	7,9443753E-001	3,2009485E-001	2,0878511E-002
03/09/2025 08:53:19.9690	6,3126212E-001	3,2206497E-001	2,4294779E-002
03/09/2025 08:53:24.1983	5,0118679E-001	3,2447052E-001	2,7725687E-002
03/09/2025 08:53:29.5059	3,9867833E-001	3,2790971E-001	3,2097053E-002
03/09/2025 08:53:36.1871	3,1619310E-001	3,3185473E-001	3,7645321E-002
03/09/2025 08:53:44.5887	2,5117347E-001	3,3576956E-001	4,3568414E-002
03/09/2025 08:53:55.1408	1,9980818E-001	3,4090519E-001	4,9274813E-002
03/09/2025 08:54:08.4357	1,5846856E-001	3,4786525E-001	5,5966541E-002
03/09/2025 08:54:25.1597	1,2590654E-001	3,5577753E-001	6,4224184E-002
03/09/2025 08:54:46.1810	1,0013975E-001	3,6392611E-001	7,3110074E-002
03/09/2025 08:55:12.6757	7,9421178E-002	3,7341079E-001	8,1805110E-002
03/09/2025 08:55:46.0154	6,3101739E-002	3,8522735E-001	9,1314293E-002
03/09/2025 08:56:27.9541	5,0154075E-002	4,0012833E-001	1,0134001E-001
03/09/2025 08:57:20.7882	3,9804459E-002	4,1588697E-001	1,1330668E-001
03/09/2025 08:58:27.3493	3,1592205E-002	4,3292949E-001	1,2519445E-001
03/09/2025 08:59:50.9686	2,5144994E-002	4,5485646E-001	1,3644525E-001
03/09/2025 09:01:36.3576	1,9949391E-002	4,8402128E-001	1,4660434E-001
03/09/2025 09:03:48.9065	1,5860692E-002	5,1716149E-001	1,5251860E-001
03/09/2025 09:06:36.0569	1,2576789E-002	5,5216008E-001	1,4930940E-001
03/09/2025 09:10:06.0775	1,0009170E-002	5,8421654E-001	1,3628666E-001
03/09/2025 09:10:06.9136	1,9999814E+005	2,5951338E-001	-9,5016640E-003
03/09/2025 09:10:07.3476	1,5885727E+005	2,7144229E-001	-5,1878919E-003
03/09/2025 09:10:07.7816	1,2618765E+005	2,7726147E-001	-2,4405587E-003
03/09/2025 09:10:08.2156	1,0022640E+005	2,8196901E-001	-2,3336415E-003
03/09/2025 09:10:09.9106	7,9609563E+004	2,8371224E-001	-1,8354225E-003
03/09/2025 09:10:11.6046	6,3233004E+004	2,8442559E-001	-1,1401520E-003
03/09/2025 09:10:13.1586	5,0224539E+004	2,8496706E-001	-8,4440847E-004
03/09/2025 09:10:13.8726	3,9897566E+004	2,8552091E-001	-4,4437562E-004
03/09/2025 09:10:14.3066	3,1686090E+004	2,8591499E-001	1,2902395E-004
03/09/2025 09:10:14.7416	2,5172580E+004	2,8609374E-001	3,8474763E-004
03/09/2025 09:10:15.1756	1,9995176E+004	2,8625399E-001	7,5531384E-004
03/09/2025 09:10:15.6106	1,5884798E+004	2,8643548E-001	1,1076047E-003
03/09/2025 09:10:16.0446	1,2618766E+004	2,8658363E-001	1,4750448E-003
03/09/2025 09:10:16.4786	1,0020785E+004	2,8710923E-001	1,5325303E-003
03/09/2025 09:10:16.9699	7,9597607E+003	2,8732973E-001	1,8383927E-003
03/09/2025 09:10:17.5514	6,3238188E+003	2,8778780E-001	2,1001303E-003
03/09/2025 09:10:18.0208	5,0216069E+003	2,8790307E-001	2,3462835E-003
03/09/2025 09:10:18.7121	3,9861731E+003	2,8835744E-001	2,2772055E-003
03/09/2025 09:10:19.1791	3,1669595E+003	2,8872767E-001	2,6529122E-003
03/09/2025 09:10:19.6449	2,5158047E+003	2,8906611E-001	2,7029938E-003
03/09/2025 09:10:20.1121	1,9980818E+003	2,8961095E-001	2,7787834E-003
03/09/2025 09:10:20.5791	1,5884750E+003	2,8996783E-001	3,0874386E-003
03/09/2025 09:10:21.0449	1,2604036E+003	2,9034758E-001	3,1378393E-003
03/09/2025 09:10:21.5116	1,0016024E+003	2,9073486E-001	3,1786389E-003
03/09/2025 09:10:21.9788	7,9525409E+002	2,9118550E-001	3,1700656E-003
03/09/2025 09:10:22.4453	6,3181964E+002	2,9172921E-001	3,5051170E-003
03/09/2025 09:10:22.9121	5,0208865E+002	2,9227015E-001	3,5273493E-003
03/09/2025 09:10:23.3796	3,9859698E+002	2,9282397E-001	3,6228204E-003
03/09/2025 09:10:23.8448	3,1672299E+002	2,9332107E-001	4,1083717E-003
03/09/2025 09:10:24.3096	2,5169135E+002	2,9384312E-001	4,1427286E-003
03/09/2025 09:10:24.7781	1,9980818E+002	2,9441273E-001	4,2142998E-003
03/09/2025 09:10:25.2476	1,5862943E+002	2,9520479E-001	4,5908978E-003
03/09/2025 09:10:25.7123	1,2600809E+002	2,9574737E-001	4,7179656E-003
03/09/2025 09:10:26.1796	1,0016024E+002	2,9641202E-001	5,0038146E-003
03/09/2025 09:10:26.6501	7,9516548E+001	2,9713938E-001	5,1895785E-003
03/09/2025 09:10:27.1287	6,3160763E+001	2,9794753E-001	5,5621522E-003
03/09/2025 09:10:27.5951	5,0208866E+001	2,9858485E-001	5,7113855E-003
03/09/2025 09:10:28.0626	3,9859695E+001	2,9941821E-001	6,2747351E-003
03/09/2025 09:10:28.5083	3,1672298E+001	3,0036190E-001	6,4404598E-003
03/09/2025 09:10:28.9738	2,5136747E+001	3,0124307E-001	6,9466284E-003