File: data/phase_2a/Sergey/2/8.3/02 polarisation/SN50_C6aD1E1_mr 0,1MFeCN6_in_1M_KCl_3306mL_symmetric_balanced_4_point_PEIS_10mHz_200kHz_10mV_04_CA_C16.txt
time/s	<I>/mA	Ewe/V
30/08/2025 23:05:02.8001	2,865318681842391E+002	-2,1881063E-003
30/08/2025 23:05:07.8001	1,091543683334348E+002	-2,1881063E-003
30/08/2025 23:05:12.8001	6,170297327117919E+001	-2,1117069E-003
30/08/2025 23:05:17.8001	3,762626308517454E+001	-2,0735073E-003
30/08/2025 23:05:22.8001	2,450159477691649E+001	-2,1499067E-003
30/08/2025 23:05:27.8001	1,685035641326903E+001	-2,0926071E-003
30/08/2025 23:05:32.8001	1,194180675487518E+001	-2,0735073E-003
30/08/2025 23:05:37.8001	8,480420730209346E+000	-2,1881063E-003
30/08/2025 23:05:42.8001	6,058608395195009E+000	-2,1308069E-003
30/08/2025 23:05:47.8001	4,363647146619300E+000	-2,2263059E-003
30/08/2025 23:05:52.8001	3,538156217479695E+000	-2,1690065E-003
30/08/2025 23:05:57.8001	3,155749356698987E+000	-2,1117069E-003
30/08/2025 23:06:02.8001	3,076754641151425E+000	-2,1117069E-003
30/08/2025 23:06:07.8001	3,168163277482986E+000	-2,1117069E-003
30/08/2025 23:06:12.8001	3,328005438661563E+000	-2,2263059E-003
30/08/2025 23:06:17.8001	3,493950767135615E+000	-2,0544075E-003
30/08/2025 23:06:22.8001	3,660274220800389E+000	-2,1690065E-003
30/08/2025 23:06:27.8001	3,802817376232145E+000	-2,1881063E-003
30/08/2025 23:06:32.8001	3,953246582221984E+000	-2,1117069E-003
30/08/2025 23:06:37.8001	4,076109037590022E+000	-1,9971081E-003
30/08/2025 23:06:42.8001	4,180651096630093E+000	-2,1117069E-003
30/08/2025 23:06:47.8001	4,260391775131218E+000	-2,2263059E-003
30/08/2025 23:06:52.8001	4,340873892784103E+000	-2,0735073E-003
30/08/2025 23:06:57.8001	4,406060036277765E+000	-2,1499067E-003
30/08/2025 23:07:02.8001	4,454476333618164E+000	-2,1308069E-003
30/08/2025 23:07:07.8001	4,494556408786773E+000	-2,1308069E-003
30/08/2025 23:07:12.8001	4,519364507293687E+000	-2,0544075E-003
30/08/2025 23:07:17.8001	4,538014118289937E+000	-2,0926071E-003
30/08/2025 23:07:22.8001	4,547025199127197E+000	-2,1117069E-003
30/08/2025 23:07:27.8001	4,554715813350668E+000	-2,0544075E-003
30/08/2025 23:07:32.8001	4,549005582618705E+000	-2,1499067E-003
30/08/2025 23:07:37.8001	4,539982168292994E+000	-2,1308069E-003
30/08/2025 23:07:42.8001	4,532605708599085E+000	-2,1690065E-003
30/08/2025 23:07:47.8001	4,518191333675384E+000	-2,1690065E-003
30/08/2025 23:07:52.8001	4,507331822013855E+000	-2,1690065E-003
30/08/2025 23:07:57.8001	4,493840603542324E+000	-2,2454057E-003
30/08/2025 23:08:02.8001	4,480080000209810E+000	-2,1308069E-003
30/08/2025 23:08:07.8001	4,467451533031461E+000	-2,1117069E-003
30/08/2025 23:08:12.8001	4,450239693832394E+000	-2,1690065E-003
30/08/2025 23:08:17.8001	4,436223175716393E+000	-2,0926071E-003
30/08/2025 23:08:22.8001	4,425441447353350E+000	-2,1881063E-003
30/08/2025 23:08:27.8001	4,416252734088886E+000	-2,1117069E-003
30/08/2025 23:08:32.8001	4,410939763545983E+000	-2,0735073E-003
30/08/2025 23:08:37.8001	4,396393365955348E+000	-2,1117069E-003
30/08/2025 23:08:42.8001	4,386273055553431E+000	-2,1308069E-003
30/08/2025 23:08:47.8001	4,369425398254386E+000	-2,1308069E-003
30/08/2025 23:08:52.8001	4,362054527473433E+000	-2,2072061E-003
30/08/2025 23:08:57.8001	4,359557436084742E+000	-2,1117069E-003
30/08/2025 23:09:02.8001	4,346452105045316E+000	-2,0162079E-003
30/08/2025 23:09:07.8001	4,347443574714660E+000	-2,1881063E-003
30/08/2025 23:09:12.8001	4,336922304630264E+000	-2,1499067E-003
30/08/2025 23:09:17.8001	4,312995812129977E+000	-2,0735073E-003
30/08/2025 23:09:22.8001	4,300418913364407E+000	-2,1881063E-003
30/08/2025 23:09:27.8001	4,302131057262422E+000	-2,0735073E-003
30/08/2025 23:09:32.8001	4,281024439239502E+000	-2,1499067E-003
30/08/2025 23:09:37.8001	4,271127376270286E+000	-2,0735073E-003
30/08/2025 23:09:42.8001	4,268547359085076E+000	-2,1881063E-003
30/08/2025 23:09:47.8001	4,251704118919371E+000	-2,1308069E-003
30/08/2025 23:09:52.8001	4,241356842899322E+000	-2,1499067E-003
30/08/2025 23:09:57.8001	4,233761917400344E+000	-2,0926071E-003
30/08/2025 23:10:02.8001	4,219123740005493E+000	-2,0544075E-003
30/08/2025 23:10:07.8001	4,207056493282318E+000	-2,1690065E-003
30/08/2025 23:10:12.8001	4,200885778427123E+000	-2,0735073E-003
30/08/2025 23:10:17.8001	4,184895408248899E+000	-2,1308069E-003
30/08/2025 23:10:22.8001	4,182218593597408E+000	-2,0544075E-003
30/08/2025 23:10:27.8001	4,172185251998897E+000	-2,0926071E-003
30/08/2025 23:10:32.8001	4,159222313690179E+000	-2,1117069E-003
30/08/2025 23:10:37.8001	4,157243420219416E+000	-2,1117069E-003
30/08/2025 23:10:42.8001	4,140035212707517E+000	-2,0735073E-003
30/08/2025 23:10:47.8001	4,129880089378347E+000	-2,1499067E-003
30/08/2025 23:10:52.8001	4,115697477436058E+000	-2,0926071E-003
30/08/2025 23:10:57.8001	4,119313694095611E+000	-2,1690065E-003
30/08/2025 23:11:02.8001	4,099020491504668E+000	-2,1881063E-003
30/08/2025 23:11:07.8001	4,092114325046538E+000	-1,9589085E-003
30/08/2025 23:11:12.8001	4,084784644222253E+000	-2,0926071E-003
30/08/2025 23:11:17.8001	4,074230248451229E+000	-2,1117069E-003
30/08/2025 23:11:22.8001	4,067066049480431E+000	-2,1308069E-003
30/08/2025 23:11:27.8001	4,060162376880641E+000	-2,0926071E-003
30/08/2025 23:11:32.8001	4,043846898078911E+000	-2,1881063E-003
30/08/2025 23:11:37.8001	4,031587476491922E+000	-2,0926071E-003
30/08/2025 23:11:42.8001	4,017979999494550E+000	-2,1881063E-003
30/08/2025 23:11:47.8001	4,005894636106492E+000	-2,0926071E-003
30/08/2025 23:11:52.8001	3,997940651464461E+000	-2,1881063E-003
30/08/2025 23:11:57.8001	3,988392415761943E+000	-2,1499067E-003
30/08/2025 23:12:02.8001	3,981791678380958E+000	-2,1117069E-003
30/08/2025 23:12:07.8001	3,968842190599432E+000	-2,1690065E-003
30/08/2025 23:12:12.8001	3,957593606758110E+000	-2,2454057E-003
30/08/2025 23:12:17.8001	3,947608109712597E+000	-2,0926071E-003
30/08/2025 23:12:22.8001	3,933603817319867E+000	-2,2263059E-003
30/08/2025 23:12:27.8001	3,933370846080779E+000	-2,0544075E-003
30/08/2025 23:12:32.8001	3,919777790021882E+000	-1,9971081E-003
30/08/2025 23:12:37.8001	3,912799348974228E+000	-2,1308069E-003
30/08/2025 23:12:42.8001	3,894873771047585E+000	-2,1690065E-003
30/08/2025 23:12:47.8001	3,884043591213214E+000	-2,0926071E-003
30/08/2025 23:12:52.8001	3,877233426284775E+000	-2,0735073E-003
30/08/2025 23:12:57.8001	3,873544326591485E+000	-2,0544075E-003
30/08/2025 23:13:02.8001	3,863758134222028E+000	-2,1690065E-003
30/08/2025 23:13:07.8001	3,849425529670715E+000	-2,1308069E-003
30/08/2025 23:13:12.8001	3,844981720304489E+000	-2,2072061E-003
30/08/2025 23:13:17.8001	3,833751462888717E+000	-2,1881063E-003
30/08/2025 23:13:22.8001	3,826518054437637E+000	-2,1499067E-003
30/08/2025 23:13:27.8001	3,819621169567100E+000	-2,1499067E-003
30/08/2025 23:13:32.8001	3,811348515319821E+000	-2,0353077E-003
30/08/2025 23:13:37.8001	3,797969935512533E+000	-2,1499067E-003
30/08/2025 23:13:42.8001	3,792353460741040E+000	-2,0735073E-003
30/08/2025 23:13:47.8001	3,785321962404250E+000	-2,3027051E-003
30/08/2025 23:13:52.8001	3,782829730701444E+000	-2,1308069E-003
30/08/2025 23:13:57.8001	3,775676054048535E+000	-2,0926071E-003
30/08/2025 23:14:02.8001	3,766619018125539E+000	-2,0735073E-003
30/08/2025 23:14:07.8001	3,755307797479631E+000	-2,1499067E-003
30/08/2025 23:14:12.8001	3,749474599981312E+000	-2,1690065E-003
30/08/2025 23:14:17.8001	3,733390759658814E+000	-2,0544075E-003
30/08/2025 23:14:22.8001	3,729537231445311E+000	-2,1117069E-003
30/08/2025 23:14:27.8001	3,731079501628876E+000	-2,0735073E-003
30/08/2025 23:14:32.8001	3,714160525131220E+000	-2,0735073E-003
30/08/2025 23:14:37.8001	3,703258463478079E+000	-2,1690065E-003
30/08/2025 23:14:42.8001	3,693471979999543E+000	-2,0926071E-003
30/08/2025 23:14:47.8001	3,677379457139963E+000	-2,1881063E-003
30/08/2025 23:14:52.8001	3,671578559589385E+000	-2,2072061E-003
30/08/2025 23:14:57.8001	3,658111805582046E+000	-2,1117069E-003
30/08/2025 23:15:02.8001	3,652071666717529E+000	-2,1117069E-003
30/08/2025 23:15:07.8001	3,649759976196290E+000	-2,0162079E-003
30/08/2025 23:15:12.8001	3,639459859180450E+000	-2,2454057E-003
30/08/2025 23:15:17.8001	3,624978418636317E+000	-2,1499067E-003
30/08/2025 23:15:22.8001	3,616806822299949E+000	-2,2454057E-003
30/08/2025 23:15:27.8001	3,618807670879356E+000	-2,0926071E-003
30/08/2025 23:15:32.8001	3,604693545007706E+000	-2,0735073E-003
30/08/2025 23:15:37.8001	3,605840340375899E+000	-2,1117069E-003
30/08/2025 23:15:42.8001	3,591154449272153E+000	-2,0735073E-003
30/08/2025 23:15:47.8001	3,587023069858546E+000	-2,2454057E-003
30/08/2025 23:15:52.8001	3,576752817392347E+000	-2,1308069E-003
30/08/2025 23:15:57.8001	3,560190287590018E+000	-2,1690065E-003
30/08/2025 23:16:02.8001	3,561502027797701E+000	-2,0926071E-003
30/08/2025 23:16:07.8001	3,547297815942756E+000	-2,1308069E-003
30/08/2025 23:16:12.8001	3,538277681446075E+000	-2,0735073E-003
30/08/2025 23:16:17.8001	3,529581731128694E+000	-2,0926071E-003
30/08/2025 23:16:22.8001	3,519681606388076E+000	-2,1117069E-003
30/08/2025 23:16:27.8001	3,511739803886407E+000	-2,1690065E-003
30/08/2025 23:16:32.8001	3,504155077505104E+000	-2,0735073E-003
30/08/2025 23:16:37.8001	3,489560962533950E+000	-2,0735073E-003
30/08/2025 23:16:42.8001	3,485521557807922E+000	-2,1117069E-003
30/08/2025 23:16:47.8001	3,480244651937484E+000	-2,0735073E-003
30/08/2025 23:16:52.8001	3,471336651468274E+000	-2,1881063E-003
30/08/2025 23:16:57.8001	3,460453792285918E+000	-2,0353077E-003
30/08/2025 23:17:02.8001	3,450832231664648E+000	-2,2263059E-003
30/08/2025 23:17:07.8001	3,448236787128451E+000	-2,1308069E-003
30/08/2025 23:17:12.8001	3,439210427665710E+000	-2,0735073E-003
30/08/2025 23:17:17.8001	3,431532008361813E+000	-2,2263059E-003
30/08/2025 23:17:22.8001	3,426206323051453E+000	-1,9589085E-003
30/08/2025 23:17:27.8001	3,417287468719479E+000	-2,1690065E-003
30/08/2025 23:17:32.8001	3,404311978483193E+000	-2,1308069E-003
30/08/2025 23:17:37.8001	3,402352995061861E+000	-2,0926071E-003
30/08/2025 23:17:42.8001	3,392530573415755E+000	-2,1117069E-003
30/08/2025 23:17:47.8001	3,383471971082687E+000	-2,1308069E-003
30/08/2025 23:17:52.8001	3,381393356704706E+000	-2,1117069E-003
30/08/2025 23:17:57.8001	3,370327607297881E+000	-2,0544075E-003
30/08/2025 23:18:02.8001	3,369826901388166E+000	-2,0926071E-003
30/08/2025 23:18:07.8001	3,353875687646863E+000	-2,0926071E-003
30/08/2025 23:18:12.8001	3,345944122266758E+000	-2,1308069E-003
30/08/2025 23:18:17.8001	3,338521763324735E+000	-2,0353077E-003
30/08/2025 23:18:22.8001	3,326308345842364E+000	-2,1117069E-003
30/08/2025 23:18:27.8001	3,321059469604492E+000	-2,1690065E-003
30/08/2025 23:18:32.8001	3,315698452711104E+000	-2,1308069E-003
30/08/2025 23:18:37.8001	3,306439304113383E+000	-2,1690065E-003
30/08/2025 23:18:42.8001	3,297725513172153E+000	-2,0926071E-003
30/08/2025 23:18:47.8001	3,297323044157025E+000	-2,0544075E-003
30/08/2025 23:18:52.8001	3,284223639392849E+000	-2,0735073E-003
30/08/2025 23:18:57.8001	3,275678106164932E+000	-2,0162079E-003
30/08/2025 23:19:02.8001	3,267290133285520E+000	-2,1881063E-003
30/08/2025 23:19:07.8001	3,270620366191862E+000	-2,1499067E-003
30/08/2025 23:19:12.8001	3,250133354997629E+000	-2,1117069E-003
30/08/2025 23:19:17.8001	3,250475096178050E+000	-2,0926071E-003
30/08/2025 23:19:22.8001	3,244632751893995E+000	-2,2263059E-003
30/08/2025 23:19:27.8001	3,235224065732954E+000	-2,2072061E-003
30/08/2025 23:19:32.8001	3,226408206272126E+000	-2,0735073E-003
30/08/2025 23:19:37.8001	3,228426542377463E+000	-2,0926071E-003
30/08/2025 23:19:42.8001	3,212823085641858E+000	-2,1499067E-003
30/08/2025 23:19:47.8001	3,207091171979897E+000	-2,1881063E-003
30/08/2025 23:19:52.8001	3,197405065488816E+000	-2,1308069E-003
30/08/2025 23:19:57.8001	3,203125686979293E+000	-2,0544075E-003
30/08/2025 23:20:02.8001	3,182310028362274E+000	-2,2454057E-003
30/08/2025 23:20:07.8001	3,173904150819778E+000	-2,1308069E-003
30/08/2025 23:20:12.8001	3,169652478790281E+000	-2,0735073E-003
30/08/2025 23:20:17.8001	3,159554190015793E+000	-2,1499067E-003
30/08/2025 23:20:22.8001	3,151270932149885E+000	-2,1690065E-003
30/08/2025 23:20:27.8001	3,148272043275833E+000	-2,1117069E-003
30/08/2025 23:20:32.8001	3,133158360671999E+000	-2,1499067E-003
30/08/2025 23:20:37.8001	3,125938749599449E+000	-2,1499067E-003
30/08/2025 23:20:42.8001	3,119517650794975E+000	-2,2072061E-003
30/08/2025 23:20:47.8001	3,107830303049086E+000	-2,1881063E-003
30/08/2025 23:20:52.8001	3,106878277349472E+000	-2,0926071E-003
30/08/2025 23:20:57.8001	3,099622955656051E+000	-2,2263059E-003
30/08/2025 23:21:02.8001	3,090964275503158E+000	-2,0735073E-003
30/08/2025 23:21:07.8001	3,082603655290601E+000	-2,0926071E-003
30/08/2025 23:21:12.8001	3,077091596412657E+000	-2,1499067E-003
30/08/2025 23:21:17.8001	3,066803248167034E+000	-2,1117069E-003
30/08/2025 23:21:22.8001	3,060655320930479E+000	-2,1690065E-003
30/08/2025 23:21:27.8001	3,056390463495255E+000	-2,1308069E-003
30/08/2025 23:21:32.8001	3,049361242675780E+000	-2,1308069E-003
30/08/2025 23:21:37.8001	3,039988792419432E+000	-2,2072061E-003
30/08/2025 23:21:42.8001	3,039982308578491E+000	-2,2263059E-003
30/08/2025 23:21:47.8001	3,028724224948881E+000	-2,0544075E-003
30/08/2025 23:21:52.8001	3,022672151803970E+000	-2,1690065E-003
30/08/2025 23:21:57.8001	3,024945264768600E+000	-2,0735073E-003
30/08/2025 23:22:02.8001	3,015328077363968E+000	-2,0735073E-003
30/08/2025 23:22:07.8001	3,006892947101591E+000	-2,0926071E-003
30/08/2025 23:22:12.8001	2,999278396224973E+000	-2,1308069E-003
30/08/2025 23:22:17.8001	2,987809237194057E+000	-2,1117069E-003
30/08/2025 23:22:22.8001	2,985437613344192E+000	-2,0926071E-003
30/08/2025 23:22:27.8001	2,974955227613449E+000	-2,0735073E-003
30/08/2025 23:22:32.8001	2,968738411140436E+000	-2,2263059E-003
30/08/2025 23:22:37.8001	2,955970677947995E+000	-2,0926071E-003
30/08/2025 23:22:42.8001	2,953430388498306E+000	-2,1117069E-003
30/08/2025 23:22:47.8001	2,943307453060147E+000	-2,1881063E-003
30/08/2025 23:22:52.8001	2,938901425600052E+000	-2,1499067E-003
30/08/2025 23:22:57.8001	2,931604387998581E+000	-2,1117069E-003
30/08/2025 23:23:02.8001	2,928665153932571E+000	-2,2072061E-003
30/08/2025 23:23:07.8001	2,921578915071485E+000	-2,0353077E-003
30/08/2025 23:23:12.8001	2,915474869346617E+000	-2,1117069E-003
30/08/2025 23:23:17.8001	2,910782130384444E+000	-2,0926071E-003
30/08/2025 23:23:22.8001	2,895862868738170E+000	-2,0735073E-003
30/08/2025 23:23:27.8001	2,889834148931502E+000	-2,0926071E-003
30/08/2025 23:23:32.8001	2,886250514841079E+000	-2,1308069E-003
30/08/2025 23:23:37.8001	2,880649521827696E+000	-2,0353077E-003
30/08/2025 23:23:42.8001	2,878592057800290E+000	-2,1308069E-003
30/08/2025 23:23:47.8001	2,880275953674317E+000	-2,1881063E-003
30/08/2025 23:23:52.8001	2,861278940296174E+000	-2,1308069E-003
30/08/2025 23:23:57.8001	2,867333615064620E+000	-2,1117069E-003
30/08/2025 23:24:02.8001	2,851868429470059E+000	-2,1308069E-003
30/08/2025 23:24:07.8001	2,842794327497479E+000	-2,2454057E-003
30/08/2025 23:24:12.8001	2,835811542367935E+000	-2,0544075E-003
30/08/2025 23:24:17.8001	2,822644301843638E+000	-2,1117069E-003
30/08/2025 23:24:22.8001	2,813685403728485E+000	-2,1881063E-003
30/08/2025 23:24:27.8001	2,806694000768662E+000	-2,2072061E-003
30/08/2025 23:24:32.8001	2,798819552659988E+000	-2,0926071E-003
30/08/2025 23:24:37.8001	2,803193593025206E+000	-2,0926071E-003
30/08/2025 23:24:42.8001	2,797668848466870E+000	-2,1117069E-003
30/08/2025 23:24:47.8001	2,784705223751061E+000	-2,1117069E-003
30/08/2025 23:24:52.8001	2,783060221767421E+000	-2,1308069E-003
30/08/2025 23:24:57.8001	2,773956553268432E+000	-2,1690065E-003
30/08/2025 23:25:02.8001	2,764429773044586E+000	-2,0544075E-003
30/08/2025 23:25:07.8001	2,760038460206978E+000	-2,1499067E-003
30/08/2025 23:25:12.8001	2,754181676769253E+000	-2,2263059E-003
30/08/2025 23:25:17.8001	2,755328129100800E+000	-2,1117069E-003
30/08/2025 23:25:22.8001	2,742159324121474E+000	-2,0544075E-003
30/08/2025 23:25:27.8001	2,745028903484339E+000	-2,1308069E-003
30/08/2025 23:25:32.8001	2,728465517950056E+000	-2,1308069E-003
30/08/2025 23:25:37.8001	2,730787966251373E+000	-2,0353077E-003
30/08/2025 23:25:42.8001	2,722471976423263E+000	-2,0353077E-003
30/08/2025 23:25:47.8001	2,718718332004546E+000	-2,0735073E-003
30/08/2025 23:25:52.8001	2,710540256357191E+000	-2,1499067E-003
30/08/2025 23:25:57.8001	2,709028268337248E+000	-2,1117069E-003
30/08/2025 23:26:02.8001	2,706904460763930E+000	-2,1690065E-003
30/08/2025 23:26:07.8001	2,703599133634569E+000	-2,1308069E-003
30/08/2025 23:26:12.8001	2,688674275112149E+000	-2,0926071E-003
30/08/2025 23:26:17.8001	2,682102998304359E+000	-2,1308069E-003
30/08/2025 23:26:22.8001	2,672560434055328E+000	-2,1308069E-003
30/08/2025 23:26:27.8001	2,670847799777981E+000	-2,0926071E-003
30/08/2025 23:26:32.8001	2,660616681718825E+000	-2,1308069E-003
30/08/2025 23:26:37.8001	2,657427107334133E+000	-2,0353077E-003
30/08/2025 23:26:42.8001	2,652087678718567E+000	-2,1308069E-003
30/08/2025 23:26:47.8001	2,638905470275880E+000	-2,1308069E-003
30/08/2025 23:26:52.8001	2,633397855520247E+000	-2,1690065E-003
30/08/2025 23:26:57.8001	2,626467712736130E+000	-2,1690065E-003
30/08/2025 23:27:02.8001	2,623114362144469E+000	-2,1117069E-003
30/08/2025 23:27:07.8001	2,621206093645092E+000	-2,1881063E-003
30/08/2025 23:27:12.8001	2,610197711038587E+000	-2,0926071E-003
30/08/2025 23:27:17.8001	2,601695562028883E+000	-2,1690065E-003
30/08/2025 23:27:22.8001	2,597718181419371E+000	-2,0926071E-003
30/08/2025 23:27:27.8001	2,593059291124344E+000	-2,1690065E-003
30/08/2025 23:27:32.8001	2,585959244012830E+000	-2,1499067E-003
30/08/2025 23:27:37.8001	2,577903701210023E+000	-2,0353077E-003
30/08/2025 23:27:42.8001	2,573970106506346E+000	-2,1881063E-003
30/08/2025 23:27:47.8001	2,572307858276364E+000	-2,1308069E-003
30/08/2025 23:27:52.8001	2,560530982255933E+000	-2,0735073E-003
30/08/2025 23:27:57.8001	2,556523564529419E+000	-2,1499067E-003
30/08/2025 23:28:02.8001	2,550603323745726E+000	-2,0926071E-003
30/08/2025 23:28:07.8001	2,544669599294663E+000	-2,0544075E-003
30/08/2025 23:28:12.8001	2,538128925848000E+000	-2,1117069E-003
30/08/2025 23:28:17.8001	2,534557414388651E+000	-2,1881063E-003
30/08/2025 23:28:22.8001	2,534537540864944E+000	-2,0735073E-003
30/08/2025 23:28:27.8001	2,529371212434768E+000	-2,0162079E-003
30/08/2025 23:28:32.8001	2,526403340196609E+000	-2,1690065E-003
30/08/2025 23:28:37.8001	2,514572326183320E+000	-2,1308069E-003
30/08/2025 23:28:42.8001	2,507210287094114E+000	-2,0926071E-003
30/08/2025 23:28:47.8001	2,496829995393752E+000	-1,9207089E-003
30/08/2025 23:28:52.8001	2,500774819946287E+000	-2,0735073E-003
30/08/2025 23:28:57.8001	2,487072874116897E+000	-2,1308069E-003
30/08/2025 23:29:02.8001	2,490253291320798E+000	-2,0544075E-003
30/08/2025 23:29:07.8001	2,486121950912473E+000	-2,0353077E-003
30/08/2025 23:29:12.8001	2,478308669376373E+000	-2,1690065E-003
30/08/2025 23:29:17.8001	2,466728390121460E+000	-2,1117069E-003
30/08/2025 23:29:22.8001	2,462605242300033E+000	-2,0544075E-003
30/08/2025 23:29:27.8001	2,452591589879987E+000	-2,2072061E-003
30/08/2025 23:29:32.8001	2,447503965425490E+000	-2,0353077E-003
30/08/2025 23:29:37.8001	2,444399177885053E+000	-2,0544075E-003
30/08/2025 23:29:42.8001	2,439609923982616E+000	-2,1308069E-003
30/08/2025 23:29:47.8001	2,432468937063213E+000	-2,0735073E-003
30/08/2025 23:29:52.8001	2,425672863292689E+000	-2,0353077E-003
30/08/2025 23:29:57.8001	2,420138857603071E+000	-2,1690065E-003
30/08/2025 23:30:02.8001	2,415239042901991E+000	-2,0926071E-003
30/08/2025 23:30:07.8001	2,408452753973007E+000	-2,0353077E-003
30/08/2025 23:30:12.8001	2,405938617944718E+000	-2,1308069E-003
30/08/2025 23:30:17.8001	2,400972382068632E+000	-2,1308069E-003
30/08/2025 23:30:22.8001	2,392983192157745E+000	-2,1117069E-003
30/08/2025 23:30:27.8001	2,388821771955492E+000	-2,0353077E-003
30/08/2025 23:30:32.8001	2,388652994108199E+000	-2,1499067E-003
30/08/2025 23:30:37.8001	2,385412062311168E+000	-2,2263059E-003
30/08/2025 23:30:42.8001	2,372091546678542E+000	-2,0926071E-003
30/08/2025 23:30:47.8001	2,366457845401762E+000	-2,1117069E-003
30/08/2025 23:30:52.8001	2,360950388622285E+000	-2,1308069E-003
30/08/2025 23:30:57.8001	2,349403562641143E+000	-2,1308069E-003
30/08/2025 23:31:02.8001	2,346893524265289E+000	-2,0544075E-003
30/08/2025 23:31:07.8001	2,337490162515635E+000	-2,1117069E-003
30/08/2025 23:31:12.8001	2,339067137527465E+000	-2,1117069E-003
30/08/2025 23:31:17.8001	2,331515694189072E+000	-2,0544075E-003
30/08/2025 23:31:22.8001	2,327483496379848E+000	-2,1308069E-003
30/08/2025 23:31:27.8001	2,318379370975492E+000	-2,1117069E-003
30/08/2025 23:31:32.8001	2,314471809911723E+000	-2,1881063E-003
30/08/2025 23:31:37.8001	2,316467103576656E+000	-2,1881063E-003
30/08/2025 23:31:42.8001	2,301105462217329E+000	-2,0735073E-003
30/08/2025 23:31:47.8001	2,294066980218879E+000	-2,1499067E-003
30/08/2025 23:31:52.8001	2,294525175666807E+000	-2,2263059E-003
30/08/2025 23:31:57.8001	2,285895553493500E+000	-2,2263059E-003
30/08/2025 23:32:02.8001	2,282084663248060E+000	-2,0926071E-003
30/08/2025 23:32:07.8001	2,278445220422745E+000	-2,2072061E-003
30/08/2025 23:32:12.8001	2,271595568180075E+000	-2,1690065E-003
30/08/2025 23:32:17.8001	2,264743324422836E+000	-2,1499067E-003
30/08/2025 23:32:22.8001	2,256507233619686E+000	-2,1499067E-003
30/08/2025 23:32:27.8001	2,254810152244566E+000	-2,1499067E-003
30/08/2025 23:32:32.8001	2,254210939311981E+000	-2,0926071E-003
30/08/2025 23:32:37.8001	2,244287003898620E+000	-2,1499067E-003
30/08/2025 23:32:42.8001	2,242824019575117E+000	-2,1881063E-003
30/08/2025 23:32:47.8001	2,238268431997295E+000	-2,0735073E-003
30/08/2025 23:32:52.8001	2,238861093521117E+000	-2,2072061E-003
30/08/2025 23:32:57.8001	2,219253451442718E+000	-2,0544075E-003
30/08/2025 23:33:02.8001	2,220520592880241E+000	-2,0544075E-003
30/08/2025 23:33:07.8001	2,211725464677810E+000	-2,1499067E-003
30/08/2025 23:33:12.8001	2,202322267675399E+000	-2,1308069E-003
30/08/2025 23:33:17.8001	2,200194812345504E+000	-2,1499067E-003
30/08/2025 23:33:22.8001	2,197462725973125E+000	-2,1117069E-003
30/08/2025 23:33:27.8001	2,191775602388379E+000	-2,1117069E-003
30/08/2025 23:33:32.8001	2,187460862445832E+000	-2,1881063E-003
30/08/2025 23:33:37.8001	2,184785540723801E+000	-2,1881063E-003
30/08/2025 23:33:42.8001	2,176903702402115E+000	-2,1117069E-003
30/08/2025 23:33:47.8001	2,179702351856228E+000	-2,1881063E-003
30/08/2025 23:33:52.8001	2,167864712715151E+000	-2,1117069E-003
30/08/2025 23:33:57.8001	2,170327692270277E+000	-2,1881063E-003
30/08/2025 23:34:02.8001	2,158646249341963E+000	-2,0735073E-003
30/08/2025 23:34:07.8001	2,162224304485321E+000	-2,0162079E-003
30/08/2025 23:34:12.8001	2,157067209672924E+000	-2,1308069E-003
30/08/2025 23:34:17.8001	2,147086576271057E+000	-2,1690065E-003
30/08/2025 23:34:22.8001	2,141038161945342E+000	-2,1308069E-003
30/08/2025 23:34:27.8001	2,135388585567474E+000	-2,1690065E-003
30/08/2025 23:34:32.8001	2,131665555000296E+000	-2,1690065E-003
30/08/2025 23:34:37.8001	2,126880796337126E+000	-2,1690065E-003
30/08/2025 23:34:42.8001	2,122653163528440E+000	-2,1499067E-003
30/08/2025 23:34:47.8001	2,124592925167086E+000	-2,0544075E-003
30/08/2025 23:34:52.8001	2,115643357086178E+000	-2,1117069E-003
30/08/2025 23:34:57.8001	2,106513409900664E+000	-2,0926071E-003
30/08/2025 23:35:02.8001	2,111232781696318E+000	-2,1117069E-003
30/08/2025 23:35:07.8001	2,097146894073482E+000	-2,1690065E-003
30/08/2025 23:35:12.8001	2,097342540740964E+000	-2,1117069E-003
30/08/2025 23:35:17.8001	2,088166799926753E+000	-2,1308069E-003
30/08/2025 23:35:22.8001	2,084845094633101E+000	-2,1881063E-003
30/08/2025 23:35:27.8001	2,084064319038383E+000	-2,1308069E-003
30/08/2025 23:35:32.8001	2,075719434022901E+000	-2,1117069E-003
30/08/2025 23:35:37.8001	2,074229205560684E+000	-2,1499067E-003
30/08/2025 23:35:42.8001	2,062909215164176E+000	-2,1117069E-003
30/08/2025 23:35:47.8001	2,061277905178066E+000	-2,2072061E-003
30/08/2025 23:35:52.8001	2,058216999721527E+000	-2,0926071E-003
30/08/2025 23:35:57.8001	2,052504118394850E+000	-2,1690065E-003
30/08/2025 23:36:02.8001	2,042510826396935E+000	-2,0162079E-003
30/08/2025 23:36:07.8001	2,041025081825254E+000	-2,2263059E-003
30/08/2025 23:36:12.8001	2,041655799484252E+000	-2,1881063E-003
30/08/2025 23:36:17.8001	2,032890543556213E+000	-2,2072061E-003
30/08/2025 23:36:22.8001	2,027368014335632E+000	-2,1308069E-003
30/08/2025 23:36:27.8001	2,021259332394598E+000	-2,1499067E-003
30/08/2025 23:36:32.8001	2,012912589311597E+000	-2,1308069E-003
30/08/2025 23:36:37.8001	2,011416904377937E+000	-2,1499067E-003
30/08/2025 23:36:42.8001	2,009492064404483E+000	-2,1881063E-003
30/08/2025 23:36:47.8001	2,001959849762912E+000	-2,1499067E-003
30/08/2025 23:36:52.8001	1,999531704759598E+000	-2,0735073E-003
30/08/2025 23:36:57.8001	1,995757707238196E+000	-2,1690065E-003
30/08/2025 23:37:02.8001	1,988641207075112E+000	-2,1690065E-003
30/08/2025 23:37:07.8001	1,986445363426206E+000	-2,0735073E-003
30/08/2025 23:37:12.8001	1,980759558582307E+000	-2,1881063E-003
30/08/2025 23:37:17.8001	1,975950434017182E+000	-2,2263059E-003
30/08/2025 23:37:22.8001	1,973082239556312E+000	-2,0544075E-003
30/08/2025 23:37:27.8001	1,964846098303795E+000	-2,1690065E-003
30/08/2025 23:37:32.8001	1,964527421712873E+000	-2,1308069E-003
30/08/2025 23:37:37.8001	1,957362616944309E+000	-2,1117069E-003
30/08/2025 23:37:42.8001	1,948593287944792E+000	-2,1308069E-003
30/08/2025 23:37:47.8001	1,943750196146961E+000	-2,1499067E-003
30/08/2025 23:37:52.8001	1,941470612716675E+000	-2,2072061E-003
30/08/2025 23:37:57.8001	1,939804034042353E+000	-2,1881063E-003
30/08/2025 23:38:02.8001	1,939194486308097E+000	-2,2072061E-003
30/08/2025 23:38:07.8001	1,925572303771972E+000	-2,1881063E-003
30/08/2025 23:38:12.8001	1,924952897024152E+000	-2,1117069E-003
30/08/2025 23:38:17.8001	1,917005457115170E+000	-2,1690065E-003
30/08/2025 23:38:22.8001	1,922425892138479E+000	-2,1308069E-003
30/08/2025 23:38:27.8001	1,904380553770065E+000	-2,2454057E-003
30/08/2025 23:38:32.8001	1,902779283714288E+000	-2,1117069E-003
30/08/2025 23:38:37.8001	1,903082780098913E+000	-2,0162079E-003
30/08/2025 23:38:42.8001	1,899289072585098E+000	-2,0926071E-003
30/08/2025 23:38:47.8001	1,892559339237209E+000	-2,0926071E-003
30/08/2025 23:38:52.8001	1,890264191627498E+000	-2,1499067E-003
30/08/2025 23:38:57.8001	1,888059301590918E+000	-1,9589085E-003
30/08/2025 23:39:02.8001	1,881155332207680E+000	-1,9589085E-003
30/08/2025 23:39:07.8001	1,879908481836317E+000	-2,1881063E-003
30/08/2025 23:39:12.8001	1,874534656906125E+000	-2,0162079E-003
30/08/2025 23:39:17.8001	1,868484836101532E+000	-2,1499067E-003
30/08/2025 23:39:22.8001	1,867462027263641E+000	-2,1499067E-003
30/08/2025 23:39:27.8001	1,855878251123427E+000	-2,1690065E-003
30/08/2025 23:39:32.8001	1,851708684849736E+000	-2,0353077E-003
30/08/2025 23:39:37.8001	1,856353820133201E+000	-2,2263059E-003
30/08/2025 23:39:42.8001	1,847518872618672E+000	-2,1690065E-003
30/08/2025 23:39:47.8001	1,844242850852009E+000	-2,1499067E-003
30/08/2025 23:39:52.8001	1,845500751686096E+000	-2,1499067E-003
30/08/2025 23:39:57.8001	1,844924066519736E+000	-2,1690065E-003
30/08/2025 23:40:02.8001	1,829944912600510E+000	-2,0353077E-003
30/08/2025 23:40:07.8001	1,826261341881747E+000	-2,1881063E-003
30/08/2025 23:40:12.8001	1,822561654639241E+000	-2,1308069E-003
30/08/2025 23:40:17.8001	1,818180941820144E+000	-2,0926071E-003
30/08/2025 23:40:22.8001	1,809884053802490E+000	-2,1881063E-003
30/08/2025 23:40:27.8001	1,804928029179571E+000	-2,0544075E-003
30/08/2025 23:40:32.8001	1,808450720572470E+000	-2,1117069E-003
30/08/2025 23:40:37.8001	1,801907340693472E+000	-2,1117069E-003
30/08/2025 23:40:42.8001	1,794982943701740E+000	-2,1117069E-003
30/08/2025 23:40:47.8001	1,791660022783280E+000	-2,0735073E-003
30/08/2025 23:40:52.8001	1,789953431344031E+000	-2,1499067E-003
30/08/2025 23:40:57.8001	1,782091942095754E+000	-2,1117069E-003
30/08/2025 23:41:02.8001	1,781545406293869E+000	-2,0926071E-003
30/08/2025 23:41:07.8001	1,774944799208640E+000	-2,1499067E-003
30/08/2025 23:41:12.8001	1,769420811963073E+000	-2,0544075E-003
30/08/2025 23:41:17.8001	1,766622101259230E+000	-2,1881063E-003
30/08/2025 23:41:22.8001	1,763866008138649E+000	-2,1308069E-003
30/08/2025 23:41:27.8001	1,757810915660855E+000	-2,1499067E-003
30/08/2025 23:41:32.8001	1,758087706398964E+000	-2,1690065E-003
30/08/2025 23:41:37.8001	1,763055379223822E+000	-2,0926071E-003
30/08/2025 23:41:42.8001	1,757905790686600E+000	-2,0353077E-003
30/08/2025 23:41:47.8001	1,745839569330215E+000	-2,1308069E-003
30/08/2025 23:41:52.8001	1,739561021828653E+000	-2,0926071E-003
30/08/2025 23:41:57.8001	1,739533539247513E+000	-2,1117069E-003
30/08/2025 23:42:02.8001	1,731979015994072E+000	-2,1499067E-003
30/08/2025 23:42:07.8001	1,734198070430750E+000	-2,1690065E-003
30/08/2025 23:42:12.8001	1,727555545210837E+000	-2,1690065E-003
30/08/2025 23:42:17.8001	1,729847236847874E+000	-2,0353077E-003
30/08/2025 23:42:22.8001	1,726904401326179E+000	-2,1308069E-003
30/08/2025 23:42:27.8001	1,716829581809041E+000	-2,0162079E-003
30/08/2025 23:42:32.8001	1,709095904707908E+000	-2,1690065E-003
30/08/2025 23:42:37.8001	1,704244939255712E+000	-2,0926071E-003
30/08/2025 23:42:42.8001	1,702490130281447E+000	-2,1117069E-003
30/08/2025 23:42:47.8001	1,699260680198663E+000	-2,1499067E-003
30/08/2025 23:42:52.8001	1,704919389963145E+000	-2,1117069E-003
30/08/2025 23:42:57.8001	1,699008101105690E+000	-2,1499067E-003
30/08/2025 23:43:02.8001	1,688061167883873E+000	-2,1499067E-003
30/08/2025 23:43:07.8001	1,678898047471044E+000	-2,1117069E-003
30/08/2025 23:43:12.8001	1,681260406088825E+000	-2,0544075E-003
30/08/2025 23:43:17.8001	1,676668016934393E+000	-2,0544075E-003
30/08/2025 23:43:22.8000	1,674737430453300E+000	-2,1117069E-003
30/08/2025 23:43:27.8000	1,675736951136585E+000	-2,2072061E-003
30/08/2025 23:43:32.8000	1,663756747317313E+000	-2,1881063E-003
30/08/2025 23:43:37.8000	1,660104967427253E+000	-2,0735073E-003
30/08/2025 23:43:42.8000	1,659550518131248E+000	-2,0353077E-003
30/08/2025 23:43:47.8000	1,655887427949899E+000	-2,0353077E-003
30/08/2025 23:43:52.8000	1,651804619264599E+000	-2,1499067E-003
30/08/2025 23:43:57.8000	1,644711922454835E+000	-2,0162079E-003
30/08/2025 23:44:02.8000	1,642130993676183E+000	-2,0544075E-003
30/08/2025 23:44:07.8000	1,631909508466720E+000	-2,0735073E-003
30/08/2025 23:44:12.8000	1,628486246991157E+000	-2,0926071E-003
30/08/2025 23:44:17.8000	1,631379532074924E+000	-2,1690065E-003
30/08/2025 23:44:22.8000	1,619123115324974E+000	-2,1117069E-003
30/08/2025 23:44:27.8000	1,624256248903274E+000	-2,1690065E-003
30/08/2025 23:44:32.8000	1,614697652125358E+000	-2,1117069E-003
30/08/2025 23:44:37.8000	1,607008714556693E+000	-2,1690065E-003
30/08/2025 23:44:42.8000	1,607154269361494E+000	-2,1499067E-003
30/08/2025 23:44:47.8000	1,603466725540160E+000	-2,1308069E-003
30/08/2025 23:44:52.8000	1,600359058523178E+000	-2,1881063E-003
30/08/2025 23:44:57.8000	1,597124452018738E+000	-2,2263059E-003
30/08/2025 23:45:02.8000	1,589321652126308E+000	-2,1117069E-003
30/08/2025 23:45:07.8000	1,582908228421211E+000	-2,1117069E-003
30/08/2025 23:45:12.8000	1,587540175747870E+000	-2,1690065E-003
30/08/2025 23:45:17.8000	1,575274202132224E+000	-2,2072061E-003
30/08/2025 23:45:22.8000	1,577580799174308E+000	-2,0735073E-003
30/08/2025 23:45:27.8000	1,581909453868864E+000	-2,1499067E-003
30/08/2025 23:45:32.8000	1,587424362516401E+000	-2,1881063E-003
30/08/2025 23:45:37.8000	1,571889009428023E+000	-2,1308069E-003
30/08/2025 23:45:42.8000	1,564716465878486E+000	-2,1308069E-003
30/08/2025 23:45:47.8000	1,566525501370428E+000	-2,1881063E-003
30/08/2025 23:45:52.8000	1,565620016455650E+000	-2,0926071E-003
30/08/2025 23:45:57.8000	1,558032895827292E+000	-2,1499067E-003
30/08/2025 23:46:02.8000	1,556499274992941E+000	-2,0926071E-003
30/08/2025 23:46:07.8000	1,557279203414916E+000	-2,0735073E-003
30/08/2025 23:46:12.8000	1,551872118473053E+000	-2,0544075E-003
30/08/2025 23:46:17.8000	1,543351452827451E+000	-2,1117069E-003
30/08/2025 23:46:22.8000	1,537377444434163E+000	-2,1690065E-003
30/08/2025 23:46:27.8000	1,529275543761253E+000	-2,1117069E-003
30/08/2025 23:46:32.8000	1,536541952323913E+000	-2,1881063E-003
30/08/2025 23:46:37.8000	1,530035062289237E+000	-2,0162079E-003
30/08/2025 23:46:42.8000	1,528230557966231E+000	-2,1881063E-003
30/08/2025 23:46:47.8000	1,524052605581283E+000	-2,1308069E-003
30/08/2025 23:46:52.8000	1,530216804027557E+000	-2,2263059E-003
30/08/2025 23:46:57.8000	1,514801293635365E+000	-2,0544075E-003
30/08/2025 23:47:02.8000	1,511291276073455E+000	-2,1881063E-003
30/08/2025 23:47:07.8000	1,511239891672134E+000	-2,1117069E-003
30/08/2025 23:47:12.8000	1,502535834264754E+000	-2,1499067E-003
30/08/2025 23:47:17.8000	1,501409498238562E+000	-2,0162079E-003
30/08/2025 23:47:22.8000	1,500641301941872E+000	-2,0544075E-003
30/08/2025 23:47:27.8000	1,491040270566938E+000	-2,0926071E-003
30/08/2025 23:47:32.8000	1,488978223061562E+000	-2,1499067E-003
30/08/2025 23:47:37.8000	1,490754323267936E+000	-2,0926071E-003
30/08/2025 23:47:42.8000	1,478845602035522E+000	-2,1881063E-003
30/08/2025 23:47:47.8000	1,479181388711929E+000	-2,0926071E-003
30/08/2025 23:47:52.8000	1,476130839490891E+000	-2,0353077E-003
30/08/2025 23:47:57.8000	1,472603124237057E+000	-2,0926071E-003
30/08/2025 23:48:02.8000	1,466161359858512E+000	-2,1499067E-003
30/08/2025 23:48:07.8000	1,460476551747320E+000	-2,0735073E-003
30/08/2025 23:48:12.8000	1,465262798881529E+000	-2,1881063E-003
30/08/2025 23:48:17.8000	1,454658032822609E+000	-2,1117069E-003
30/08/2025 23:48:22.8000	1,454947382855412E+000	-2,1690065E-003
30/08/2025 23:48:27.8000	1,449552280187607E+000	-2,1117069E-003
30/08/2025 23:48:32.8000	1,449982195568083E+000	-2,1308069E-003
30/08/2025 23:48:37.8000	1,446841219758987E+000	-2,1308069E-003
30/08/2025 23:48:42.8000	1,439776048254966E+000	-2,0735073E-003
30/08/2025 23:48:47.8000	1,435134722733498E+000	-2,0926071E-003
30/08/2025 23:48:52.8000	1,434686990094185E+000	-2,0544075E-003
30/08/2025 23:48:57.8000	1,430161380219458E+000	-2,1308069E-003
30/08/2025 23:49:02.8000	1,433942478084560E+000	-2,0544075E-003
30/08/2025 23:49:07.8000	1,430137398648262E+000	-2,1117069E-003
30/08/2025 23:49:12.8000	1,423805696511268E+000	-2,0735073E-003
30/08/2025 23:49:17.8000	1,421093965053556E+000	-2,0735073E-003
30/08/2025 23:49:22.8000	1,429512459850312E+000	-2,0926071E-003
30/08/2025 23:49:27.8000	1,421547683644292E+000	-2,1881063E-003
30/08/2025 23:49:32.8000	1,415040963768959E+000	-1,9971081E-003
30/08/2025 23:49:37.8000	1,411344183087349E+000	-2,0353077E-003
30/08/2025 23:49:42.8000	1,399875743579864E+000	-2,1881063E-003
30/08/2025 23:49:47.8000	1,398185091233252E+000	-2,2072061E-003
30/08/2025 23:49:52.8000	1,400093816137312E+000	-1,9589085E-003
30/08/2025 23:49:57.8000	1,394428930211067E+000	-2,0735073E-003
30/08/2025 23:50:02.8000	1,397096193194386E+000	-2,1690065E-003
30/08/2025 23:50:07.8000	1,387226857137676E+000	-2,0735073E-003
30/08/2025 23:50:12.8000	1,382036061906815E+000	-2,0926071E-003
30/08/2025 23:50:17.8000	1,384881055808066E+000	-2,0926071E-003
30/08/2025 23:50:22.8000	1,375934678220748E+000	-2,1308069E-003
30/08/2025 23:50:27.8000	1,378165130543708E+000	-2,1499067E-003
30/08/2025 23:50:32.8000	1,371469300127025E+000	-2,1499067E-003
30/08/2025 23:50:37.8000	1,367401248335838E+000	-2,1499067E-003
30/08/2025 23:50:42.8000	1,357434063601492E+000	-2,1881063E-003
30/08/2025 23:50:47.8000	1,366810245299337E+000	-2,2263059E-003
30/08/2025 23:50:52.8000	1,359896638059615E+000	-2,0544075E-003
30/08/2025 23:50:57.8000	1,359145086717604E+000	-2,1117069E-003
30/08/2025 23:51:02.8000	1,357075538444519E+000	-2,1499067E-003
30/08/2025 23:51:07.8000	1,352685732769963E+000	-2,1117069E-003
30/08/2025 23:51:12.8000	1,344573996043204E+000	-2,1690065E-003
30/08/2025 23:51:17.8000	1,344806663370132E+000	-2,0926071E-003
30/08/2025 23:51:22.8000	1,339358284759520E+000	-2,2072061E-003
30/08/2025 23:51:27.8000	1,340490966510771E+000	-2,0162079E-003
30/08/2025 23:51:32.8000	1,340023872756958E+000	-2,1117069E-003
30/08/2025 23:51:37.8000	1,334579253220557E+000	-2,0353077E-003
30/08/2025 23:51:42.8000	1,330874783849715E+000	-2,1881063E-003
30/08/2025 23:51:47.8000	1,329424235987663E+000	-2,1881063E-003
30/08/2025 23:51:52.8000	1,320688008642197E+000	-2,0926071E-003
30/08/2025 23:51:57.8000	1,323004644155500E+000	-2,0544075E-003
30/08/2025 23:52:02.8000	1,314553654265403E+000	-2,0162079E-003
30/08/2025 23:52:07.8000	1,316138295459746E+000	-2,1117069E-003
30/08/2025 23:52:12.8000	1,312894310665129E+000	-2,0926071E-003
30/08/2025 23:52:17.8000	1,307757067346571E+000	-2,0926071E-003
30/08/2025 23:52:22.8000	1,303237551236152E+000	-2,1499067E-003
30/08/2025 23:52:27.8000	1,303326763010023E+000	-2,0544075E-003
30/08/2025 23:52:32.8000	1,297225802111626E+000	-2,0735073E-003
30/08/2025 23:52:37.8000	1,294224819374083E+000	-2,0926071E-003
30/08/2025 23:52:42.8000	1,291122305512428E+000	-2,3027051E-003
30/08/2025 23:52:47.8000	1,287672286224365E+000	-2,0926071E-003
30/08/2025 23:52:52.8000	1,284543497490882E+000	-2,1308069E-003
30/08/2025 23:52:57.8000	1,286165316486358E+000	-2,0926071E-003
30/08/2025 23:53:02.8000	1,280618280291558E+000	-2,1308069E-003
30/08/2025 23:53:07.8000	1,276398631596566E+000	-2,1690065E-003
30/08/2025 23:53:12.8000	1,271427994108200E+000	-2,0735073E-003
30/08/2025 23:53:17.8000	1,268844582057000E+000	-2,2072061E-003
30/08/2025 23:53:22.8000	1,271166913390160E+000	-2,1690065E-003
30/08/2025 23:53:27.8000	1,267037036561966E+000	-2,0735073E-003
30/08/2025 23:53:32.8000	1,258893086910248E+000	-2,1308069E-003
30/08/2025 23:53:37.8000	1,257803790736198E+000	-2,1881063E-003
30/08/2025 23:53:42.8000	1,257698172640800E+000	-2,1499067E-003
30/08/2025 23:53:47.8000	1,256077872800827E+000	-2,1690065E-003
30/08/2025 23:53:52.8000	1,248266240906714E+000	-2,1499067E-003
30/08/2025 23:53:57.8000	1,239551081562041E+000	-2,1690065E-003
30/08/2025 23:54:02.8000	1,251063238358497E+000	-2,0735073E-003
30/08/2025 23:54:07.8000	1,243505214977263E+000	-2,0926071E-003
30/08/2025 23:54:12.8000	1,236803813171385E+000	-2,0353077E-003
30/08/2025 23:54:17.8000	1,236045925760269E+000	-1,9780083E-003
30/08/2025 23:54:22.8000	1,232213135695457E+000	-2,1117069E-003
30/08/2025 23:54:27.8000	1,231029225325585E+000	-2,2072061E-003
30/08/2025 23:54:32.8000	1,225466212248801E+000	-2,2072061E-003
30/08/2025 23:54:37.8000	1,221228560066223E+000	-2,0735073E-003
30/08/2025 23:54:42.8000	1,224152643895149E+000	-2,1499067E-003
30/08/2025 23:54:47.8000	1,218877217388151E+000	-2,2263059E-003
30/08/2025 23:54:52.8000	1,215012621140481E+000	-2,1308069E-003
30/08/2025 23:54:57.8000	1,219012252378463E+000	-2,1881063E-003
30/08/2025 23:55:02.8000	1,206017148566246E+000	-2,0735073E-003
30/08/2025 23:55:07.8000	1,212236157250405E+000	-2,1690065E-003
30/08/2025 23:55:12.8000	1,208096954202652E+000	-2,0735073E-003
30/08/2025 23:55:17.8000	1,214950238895412E+000	-2,1690065E-003
30/08/2025 23:55:22.8000	1,200404087305067E+000	-2,2263059E-003
30/08/2025 23:55:27.8000	1,200315675640105E+000	-2,0926071E-003
30/08/2025 23:55:32.8000	1,201968475246428E+000	-2,1117069E-003
30/08/2025 23:55:37.8000	1,192261548185348E+000	-2,0735073E-003
30/08/2025 23:55:42.8000	1,182691914653777E+000	-2,0926071E-003
30/08/2025 23:55:47.8000	1,185359237885475E+000	-2,1499067E-003
30/08/2025 23:55:52.8000	1,182332915902133E+000	-2,1117069E-003
30/08/2025 23:55:57.8000	1,184787168526649E+000	-2,0926071E-003
30/08/2025 23:56:02.8000	1,178109261798859E+000	-2,1881063E-003
30/08/2025 23:56:07.8000	1,175789876341817E+000	-2,1308069E-003
30/08/2025 23:56:12.8000	1,177859391164780E+000	-2,1117069E-003
30/08/2025 23:56:17.8000	1,170715125012396E+000	-2,1308069E-003
30/08/2025 23:56:22.8000	1,168864617991447E+000	-2,1690065E-003
30/08/2025 23:56:27.8000	1,161018347978592E+000	-2,1499067E-003
30/08/2025 23:56:32.8000	1,167559615993500E+000	-2,1117069E-003
30/08/2025 23:56:37.8000	1,158720853209495E+000	-2,1881063E-003
30/08/2025 23:56:42.8000	1,153242357397079E+000	-2,2263059E-003
30/08/2025 23:56:47.8000	1,155415694880482E+000	-2,0353077E-003
30/08/2025 23:56:52.8000	1,149586446833610E+000	-2,0162079E-003
30/08/2025 23:56:57.8000	1,147595181202887E+000	-2,1499067E-003
30/08/2025 23:57:02.8000	1,141399025011063E+000	-2,1117069E-003
30/08/2025 23:57:07.8000	1,148362182998655E+000	-2,1499067E-003
30/08/2025 23:57:12.8000	1,150016435384750E+000	-2,1881063E-003
30/08/2025 23:57:17.8000	1,142245847320556E+000	-2,1117069E-003
30/08/2025 23:57:22.8000	1,148644332242012E+000	-2,1117069E-003
30/08/2025 23:57:27.8000	1,139611216115952E+000	-2,1117069E-003
30/08/2025 23:57:32.8000	1,134235255670547E+000	-2,1499067E-003
30/08/2025 23:57:37.8000	1,131079923248290E+000	-2,1308069E-003
30/08/2025 23:57:42.8000	1,128277736663819E+000	-2,1690065E-003
30/08/2025 23:57:47.8000	1,131774408268928E+000	-2,1117069E-003
30/08/2025 23:57:52.8000	1,136655229759215E+000	-2,1499067E-003
30/08/2025 23:57:57.8000	1,123356223630905E+000	-2,0926071E-003
30/08/2025 23:58:02.8000	1,117935650968552E+000	-2,1117069E-003
30/08/2025 23:58:07.8000	1,121511951851843E+000	-2,3218051E-003
30/08/2025 23:58:12.8000	1,110760797190666E+000	-2,1690065E-003
30/08/2025 23:58:17.8000	1,110911462330819E+000	-2,2072061E-003
30/08/2025 23:58:22.8000	1,114088206410406E+000	-2,1308069E-003
30/08/2025 23:58:27.8000	1,103229077434538E+000	-2,1499067E-003
30/08/2025 23:58:32.8000	1,098223202538490E+000	-2,1117069E-003
30/08/2025 23:58:37.8000	1,107737762403488E+000	-2,1308069E-003
30/08/2025 23:58:42.8000	1,094676735830307E+000	-2,1117069E-003
30/08/2025 23:58:47.8000	1,093914477586747E+000	-2,1308069E-003
30/08/2025 23:58:52.8000	1,099356172275543E+000	-2,1117069E-003
30/08/2025 23:58:57.8000	1,086937224364277E+000	-2,1690065E-003
30/08/2025 23:59:02.8000	1,088955500984191E+000	-2,0544075E-003
30/08/2025 23:59:07.8000	1,084598023748399E+000	-2,0735073E-003
30/08/2025 23:59:12.8000	1,078349319529533E+000	-2,2263059E-003
30/08/2025 23:59:17.8000	1,087396159362792E+000	-2,0735073E-003
30/08/2025 23:59:22.8000	1,087763638567925E+000	-2,1117069E-003
30/08/2025 23:59:27.8000	1,079119305348396E+000	-2,0353077E-003
30/08/2025 23:59:32.8000	1,074438201904297E+000	-2,1690065E-003
30/08/2025 23:59:37.8000	1,071197611975670E+000	-2,1881063E-003
30/08/2025 23:59:42.8000	1,070727665567397E+000	-2,1117069E-003
30/08/2025 23:59:47.8000	1,066565427112575E+000	-2,2072061E-003
30/08/2025 23:59:52.8000	1,070570453405379E+000	-2,1499067E-003
30/08/2025 23:59:57.8000	1,065128656101226E+000	-2,1117069E-003
31/08/2025 00:00:02.8000	1,060643902134895E+000	-2,1881063E-003
31/08/2025 00:00:07.8000	1,055697791647911E+000	-2,0544075E-003
31/08/2025 00:00:12.8000	1,054774999809265E+000	-2,1117069E-003
31/08/2025 00:00:17.8000	1,053608276295662E+000	-2,1117069E-003
31/08/2025 00:00:22.8000	1,046229790759085E+000	-2,1308069E-003
31/08/2025 00:00:27.8000	1,046051222133634E+000	-2,1308069E-003
31/08/2025 00:00:32.8000	1,043812644243240E+000	-2,0544075E-003
31/08/2025 00:00:37.8000	1,041578413844108E+000	-2,1690065E-003
31/08/2025 00:00:42.8000	1,031975395607948E+000	-2,2645055E-003
31/08/2025 00:00:47.8000	1,034642678165435E+000	-2,0926071E-003
31/08/2025 00:00:52.8000	1,036807547163963E+000	-2,0544075E-003
31/08/2025 00:00:57.8000	1,029638417196273E+000	-2,0926071E-003
31/08/2025 00:01:02.8000	1,024415104901788E+000	-2,0162079E-003
31/08/2025 00:01:07.8000	1,026863369154928E+000	-2,1308069E-003
31/08/2025 00:01:12.8000	1,022980962502952E+000	-2,1881063E-003
31/08/2025 00:01:17.8000	1,028228668832778E+000	-2,1690065E-003
31/08/2025 00:01:22.8000	1,022219201803207E+000	-2,1117069E-003
31/08/2025 00:01:27.8000	1,020439021146297E+000	-2,0926071E-003
31/08/2025 00:01:32.8000	1,016405180323122E+000	-2,1690065E-003
31/08/2025 00:01:37.8000	1,021714597904680E+000	-2,0926071E-003
31/08/2025 00:01:42.8000	1,014467023563384E+000	-2,0926071E-003
31/08/2025 00:01:47.8000	1,006836818647383E+000	-2,1117069E-003
31/08/2025 00:01:52.8000	1,007915510857105E+000	-2,0926071E-003
31/08/2025 00:01:57.8000	1,005091707289218E+000	-2,1690065E-003
31/08/2025 00:02:02.8000	1,002126261043546E+000	-2,0735073E-003
31/08/2025 00:02:07.8000	9,948380933999985E-001	-2,0926071E-003
31/08/2025 00:02:12.8000	9,919135684609408E-001	-2,0926071E-003
31/08/2025 00:02:17.8000	9,959598338603968E-001	-1,9971081E-003
31/08/2025 00:02:22.8000	9,913255955100055E-001	-2,1308069E-003
31/08/2025 00:02:27.8000	9,875535256266552E-001	-2,0353077E-003
31/08/2025 00:02:32.8000	9,890764631509761E-001	-2,1881063E-003
31/08/2025 00:02:37.8000	9,869904011607167E-001	-2,1117069E-003
31/08/2025 00:02:42.8000	9,914510563611962E-001	-2,1690065E-003
31/08/2025 00:02:47.8000	9,873569498777384E-001	-2,1117069E-003
31/08/2025 00:02:52.8000	9,854581617951386E-001	-2,1499067E-003
31/08/2025 00:02:57.8000	9,791891891241065E-001	-2,0544075E-003
31/08/2025 00:03:02.8000	9,753651437759387E-001	-2,0735073E-003
31/08/2025 00:03:07.8000	9,718426792263948E-001	-2,1499067E-003
31/08/2025 00:03:12.8000	9,765929821848864E-001	-2,1881063E-003
31/08/2025 00:03:17.8000	9,696155079841589E-001	-2,2645055E-003
31/08/2025 00:03:22.8000	9,677851726651192E-001	-2,1308069E-003
31/08/2025 00:03:27.8000	9,587657570719710E-001	-2,1499067E-003
31/08/2025 00:03:32.8000	9,542606249213179E-001	-2,1308069E-003
31/08/2025 00:03:37.8000	9,583360807776433E-001	-2,1499067E-003
31/08/2025 00:03:42.8000	9,544019722223280E-001	-2,0926071E-003
31/08/2025 00:03:47.8000	9,524469951152801E-001	-2,1308069E-003
31/08/2025 00:03:52.8000	9,536380496263490E-001	-2,1690065E-003
31/08/2025 00:03:57.8000	9,537156571149819E-001	-2,1499067E-003
31/08/2025 00:04:02.8000	9,582139460325223E-001	-2,0353077E-003
31/08/2025 00:04:07.8000	9,482893728256219E-001	-2,0162079E-003
31/08/2025 00:04:12.8000	9,446723112940774E-001	-2,1308069E-003
31/08/2025 00:04:17.8000	9,445259956002232E-001	-2,0735073E-003
31/08/2025 00:04:22.8000	9,414080218791963E-001	-2,0926071E-003
31/08/2025 00:04:27.8000	9,391895771861059E-001	-2,2263059E-003
31/08/2025 00:04:32.8000	9,409683845639227E-001	-2,1690065E-003
31/08/2025 00:04:37.8000	9,334019863843910E-001	-2,2072061E-003
31/08/2025 00:04:42.8000	9,325623674273480E-001	-2,1308069E-003
31/08/2025 00:04:47.8000	9,282310485243777E-001	-2,1308069E-003
31/08/2025 00:04:52.8000	9,275440012335776E-001	-2,0544075E-003
31/08/2025 00:04:57.8000	9,280362980127315E-001	-2,0735073E-003
31/08/2025 00:05:01.7522	9,209815757761870E-001	-2,1690065E-003