File: data/phase_2a/Sergey/2/8.3/02 polarisation/SN50_C6aD1E1_mr 0,1MFeCN6_in_1M_KCl_3306mL_symmetric_balanced_4_point_PEIS_10mHz_200kHz_10mV_02_CP_C16.txt
time/s	I/mA	<Ewe/V>
30/08/2025 21:41:01.6380	8,6140092E-003	-5,5767708E-003
30/08/2025 21:41:03.9380	7,3412773E-003	-5,5652219E-003
30/08/2025 21:41:06.2380	4,7958097E-003	-5,5694617E-003
30/08/2025 21:41:08.5380	5,4321769E-003	-5,5672848E-003
30/08/2025 21:41:10.8380	5,4321769E-003	-5,5742371E-003
30/08/2025 21:41:13.1380	4,1594426E-003	-5,5737789E-003
30/08/2025 21:41:15.4380	6,7049102E-003	-5,5685835E-003
30/08/2025 21:41:17.7380	-2,9512335E-004	-5,5686599E-003
30/08/2025 21:41:20.0380	6,0685435E-003	-5,5793938E-003
30/08/2025 21:41:22.3380	-2,8405902E-003	-5,5719069E-003
30/08/2025 21:41:24.6380	9,7761012E-004	-5,5773691E-003
30/08/2025 21:41:26.9380	1,2432210E-002	-5,5802725E-003
30/08/2025 21:41:29.2380	3,5230771E-003	-5,5765673E-003
30/08/2025 21:41:31.5380	9,8867435E-003	-5,5719065E-003
30/08/2025 21:41:33.8380	1,1159477E-002	-5,5777133E-003
30/08/2025 21:41:36.1380	1,1159477E-002	-5,5774841E-003
30/08/2025 21:41:38.4380	9,2503773E-003	-5,5680866E-003
30/08/2025 21:41:40.7380	6,0685435E-003	-5,5682017E-003
30/08/2025 21:41:43.0380	6,0685435E-003	-5,5728615E-003
30/08/2025 21:41:45.3380	1,3068578E-002	-5,5789738E-003
30/08/2025 21:41:47.6380	3,5230771E-003	-5,5774455E-003
30/08/2025 21:41:49.9380	5,4321769E-003	-5,5788206E-003
30/08/2025 21:41:52.2380	1,6250411E-002	-5,5782101E-003
30/08/2025 21:41:54.5380	6,0685435E-003	-5,5721742E-003
30/08/2025 21:41:56.8380	3,5230771E-003	-5,5779424E-003
30/08/2025 21:41:59.1380	1,6886778E-002	-5,5769491E-003
30/08/2025 21:42:01.4380	7,3412773E-003	-5,5781719E-003
30/08/2025 21:42:03.7380	6,7049102E-003	-5,5754213E-003
30/08/2025 21:42:06.0380	1,0523110E-002	-5,5756886E-003
30/08/2025 21:42:08.3380	6,7049102E-003	-5,5788206E-003
30/08/2025 21:42:10.6380	4,7958097E-003	-5,5740844E-003
30/08/2025 21:42:12.9380	9,8867435E-003	-5,5763759E-003
30/08/2025 21:42:15.2380	3,5230771E-003	-5,5752303E-003
30/08/2025 21:42:17.5380	8,6140092E-003	-5,5771787E-003
30/08/2025 21:42:19.8380	7,3412773E-003	-5,5795084E-003
30/08/2025 21:42:22.1380	7,9776440E-003	-5,5754213E-003
30/08/2025 21:42:24.4380	1,6139771E-003	-5,5766436E-003
30/08/2025 21:42:26.7380	1,3068578E-002	-5,5697295E-003
30/08/2025 21:42:29.0380	2,8867100E-003	-5,5804253E-003
30/08/2025 21:42:31.3380	9,8867435E-003	-5,5755358E-003
30/08/2025 21:42:33.6380	1,6139771E-003	-5,5761090E-003
30/08/2025 21:42:35.9380	2,2503431E-003	-5,5756504E-003
30/08/2025 21:42:38.2380	4,7958097E-003	-5,5778278E-003
30/08/2025 21:42:40.5380	1,0523110E-002	-5,5732820E-003
30/08/2025 21:42:42.8380	1,1159477E-002	-5,5767582E-003
30/08/2025 21:42:45.1380	7,9776440E-003	-5,5773691E-003
30/08/2025 21:42:47.4380	7,3412773E-003	-5,5773691E-003
30/08/2025 21:42:49.7380	1,1795843E-002	-5,5772928E-003
30/08/2025 21:42:52.0380	8,6140092E-003	-5,5793175E-003
30/08/2025 21:42:54.3380	6,7049102E-003	-5,5813421E-003
30/08/2025 21:42:56.6380	5,4321769E-003	-5,5777896E-003
30/08/2025 21:42:58.9380	8,6140092E-003	-5,5825263E-003
30/08/2025 21:43:01.2380	5,4321769E-003	-5,5727856E-003
30/08/2025 21:43:03.5380	6,0685435E-003	-5,5813421E-003
30/08/2025 21:43:05.8380	7,9776440E-003	-5,5812271E-003
30/08/2025 21:43:08.1380	6,7049102E-003	-5,5760322E-003
30/08/2025 21:43:10.4380	6,0685435E-003	-5,5733584E-003
30/08/2025 21:43:12.7380	8,6140092E-003	-5,5786301E-003
30/08/2025 21:43:15.0380	4,7958097E-003	-5,5785156E-003
30/08/2025 21:43:17.3380	1,0523110E-002	-5,5746958E-003
30/08/2025 21:43:19.6380	9,7761012E-004	-5,5756886E-003
30/08/2025 21:43:21.9380	4,7958097E-003	-5,5790120E-003
30/08/2025 21:43:24.2380	8,6140092E-003	-5,5800434E-003
30/08/2025 21:43:26.5380	6,0685435E-003	-5,5723269E-003
30/08/2025 21:43:28.8380	7,9776440E-003	-5,5798907E-003
30/08/2025 21:43:31.1380	6,0685435E-003	-5,5720215E-003
30/08/2025 21:43:33.4380	3,5230771E-003	-5,5787824E-003
30/08/2025 21:43:35.7380	1,7523142E-002	-5,5793556E-003
30/08/2025 21:43:38.0380	4,1594426E-003	-5,5735111E-003
30/08/2025 21:43:40.3380	3,5230771E-003	-5,5769873E-003
30/08/2025 21:43:42.6380	5,4321769E-003	-5,5806930E-003
30/08/2025 21:43:44.9380	1,6886778E-002	-5,5740844E-003
30/08/2025 21:43:47.2380	3,5230771E-003	-5,5788974E-003
30/08/2025 21:43:49.5380	3,5230771E-003	-5,5751158E-003
30/08/2025 21:43:51.8380	2,2503431E-003	-5,5793938E-003
30/08/2025 21:43:54.1380	8,6140092E-003	-5,5754976E-003
30/08/2025 21:43:56.4380	2,8867100E-003	-5,5773691E-003
30/08/2025 21:43:58.7380	9,8867435E-003	-5,5791265E-003
30/08/2025 21:44:01.0380	4,7958097E-003	-5,5774460E-003
30/08/2025 21:44:03.3380	1,0523110E-002	-5,5751922E-003
30/08/2025 21:44:05.6380	3,5230771E-003	-5,5758795E-003
30/08/2025 21:44:07.9380	1,1159477E-002	-5,5756122E-003
30/08/2025 21:44:10.2380	1,0523110E-002	-5,5745044E-003
30/08/2025 21:44:12.5380	6,7049102E-003	-5,5743898E-003
30/08/2025 21:44:14.8380	7,9776440E-003	-5,5848565E-003
30/08/2025 21:44:17.1380	6,7049102E-003	-5,5785920E-003
30/08/2025 21:44:19.4380	4,1594426E-003	-5,5753062E-003
30/08/2025 21:44:21.7380	6,0685435E-003	-5,5751922E-003
30/08/2025 21:44:24.0380	1,6139771E-003	-5,5765291E-003
30/08/2025 21:44:26.3380	1,1159477E-002	-5,5697677E-003
30/08/2025 21:44:28.6380	8,6140092E-003	-5,5771787E-003
30/08/2025 21:44:30.9380	3,4124311E-004	-5,5778278E-003
30/08/2025 21:44:33.2380	8,6140092E-003	-5,5727856E-003
30/08/2025 21:44:35.5380	6,7049102E-003	-5,5730911E-003
30/08/2025 21:44:37.8380	7,9776440E-003	-5,5782101E-003
30/08/2025 21:44:40.1380	5,4321769E-003	-5,5775987E-003
30/08/2025 21:44:42.4380	9,8867435E-003	-5,5761090E-003
30/08/2025 21:44:44.7380	6,0685435E-003	-5,5784388E-003
30/08/2025 21:44:47.0380	1,6886778E-002	-5,5751540E-003
30/08/2025 21:44:49.3380	1,3068578E-002	-5,5796616E-003
30/08/2025 21:44:51.6380	6,0685435E-003	-5,5818385E-003
30/08/2025 21:44:53.9380	8,6140092E-003	-5,5780569E-003
30/08/2025 21:44:56.2380	9,7761012E-004	-5,5784388E-003
30/08/2025 21:44:58.5380	1,3704944E-002	-5,5755740E-003
30/08/2025 21:45:00.8380	6,7049102E-003	-5,5807689E-003
30/08/2025 21:45:03.1380	9,2503773E-003	-5,5835578E-003
30/08/2025 21:45:05.4380	1,0523110E-002	-5,5772928E-003
30/08/2025 21:45:07.7380	7,3412773E-003	-5,5776369E-003
30/08/2025 21:45:10.0380	6,0685435E-003	-5,5767964E-003
30/08/2025 21:45:12.3380	8,6140092E-003	-5,5818004E-003
30/08/2025 21:45:14.6380	7,3412773E-003	-5,5803107E-003
30/08/2025 21:45:16.9380	4,7958097E-003	-5,5790883E-003
30/08/2025 21:45:19.2380	1,3704944E-002	-5,5797375E-003
30/08/2025 21:45:21.5380	1,3068578E-002	-5,5810749E-003
30/08/2025 21:45:23.8380	-9,3149021E-004	-5,5798520E-003
30/08/2025 21:45:26.1380	7,3412773E-003	-5,5787065E-003
30/08/2025 21:45:28.4380	6,7049102E-003	-5,5750394E-003
30/08/2025 21:45:30.7380	3,4124311E-004	-5,5791265E-003
30/08/2025 21:45:33.0380	2,8867100E-003	-5,5751540E-003
30/08/2025 21:45:35.3380	2,8867100E-003	-5,5749626E-003
30/08/2025 21:45:37.6380	8,6140092E-003	-5,5827936E-003
30/08/2025 21:45:39.9380	9,8867435E-003	-5,5768727E-003
30/08/2025 21:45:42.2380	9,8867435E-003	-5,5761472E-003
30/08/2025 21:45:44.5380	6,0685435E-003	-5,5780569E-003
30/08/2025 21:45:46.8380	5,4321769E-003	-5,5779042E-003
30/08/2025 21:45:49.1380	1,0523110E-002	-5,5765291E-003
30/08/2025 21:45:51.4380	8,6140092E-003	-5,5766054E-003
30/08/2025 21:45:53.7380	4,1594426E-003	-5,5753062E-003
30/08/2025 21:45:56.0380	2,2503431E-003	-5,5806166E-003
30/08/2025 21:45:58.3380	9,2503773E-003	-5,5748099E-003
30/08/2025 21:46:00.6380	6,7049102E-003	-5,5802343E-003
30/08/2025 21:46:02.9380	1,0523110E-002	-5,5703404E-003
30/08/2025 21:46:05.2380	8,6140092E-003	-5,5790883E-003
30/08/2025 21:46:07.5380	6,7049102E-003	-5,5813040E-003
30/08/2025 21:46:09.8380	4,7958097E-003	-5,5726711E-003
30/08/2025 21:46:12.1380	1,1159477E-002	-5,5752303E-003
30/08/2025 21:46:14.4380	1,1159477E-002	-5,5790120E-003
30/08/2025 21:46:16.7380	-1,5678566E-003	-5,5831377E-003
30/08/2025 21:46:19.0380	3,5230771E-003	-5,5771405E-003
30/08/2025 21:46:21.3380	4,7958097E-003	-5,5858879E-003
30/08/2025 21:46:23.6380	5,4321769E-003	-5,5771787E-003
30/08/2025 21:46:25.9380	8,6140092E-003	-5,5803489E-003
30/08/2025 21:46:28.2380	8,6140092E-003	-5,5769109E-003
30/08/2025 21:46:30.5380	1,0523110E-002	-5,5804634E-003
30/08/2025 21:46:32.8380	4,7958097E-003	-5,5781333E-003
30/08/2025 21:46:35.1380	4,1594426E-003	-5,5812658E-003
30/08/2025 21:46:37.4380	6,7049102E-003	-5,5761472E-003
30/08/2025 21:46:39.7380	6,7049102E-003	-5,5790502E-003
30/08/2025 21:46:42.0380	7,9776440E-003	-5,5798907E-003
30/08/2025 21:46:44.3380	3,5230771E-003	-5,5777510E-003
30/08/2025 21:46:46.6380	4,1594426E-003	-5,5735875E-003
30/08/2025 21:46:48.9380	7,9776440E-003	-5,5793938E-003
30/08/2025 21:46:51.2380	1,1159477E-002	-5,5769109E-003
30/08/2025 21:46:53.5380	6,0685435E-003	-5,5799671E-003
30/08/2025 21:46:55.8380	1,3068578E-002	-5,5744662E-003
30/08/2025 21:46:58.1380	1,0523110E-002	-5,5725179E-003
30/08/2025 21:47:00.4380	8,6140092E-003	-5,5848565E-003
30/08/2025 21:47:02.7380	7,9776440E-003	-5,5736643E-003
30/08/2025 21:47:05.0380	7,3412773E-003	-5,5767200E-003
30/08/2025 21:47:07.3380	1,1795843E-002	-5,5769873E-003
30/08/2025 21:47:09.6380	7,9776440E-003	-5,5789738E-003
30/08/2025 21:47:11.9380	4,7958097E-003	-5,5759177E-003
30/08/2025 21:47:14.2380	5,4321769E-003	-5,5796234E-003
30/08/2025 21:47:16.5380	9,8867435E-003	-5,5795084E-003
30/08/2025 21:47:18.8380	9,8867435E-003	-5,5701882E-003
30/08/2025 21:47:21.1380	4,7958097E-003	-5,5788592E-003
30/08/2025 21:47:23.4380	6,7049102E-003	-5,5777896E-003
30/08/2025 21:47:25.7380	2,2503431E-003	-5,5782101E-003
30/08/2025 21:47:28.0380	1,4341311E-002	-5,5792034E-003
30/08/2025 21:47:30.3380	7,9776440E-003	-5,5742371E-003
30/08/2025 21:47:32.6380	7,3412773E-003	-5,5740080E-003
30/08/2025 21:47:34.9380	1,6139771E-003	-5,5800052E-003
30/08/2025 21:47:37.2380	8,6140092E-003	-5,5788206E-003
30/08/2025 21:47:39.5380	7,3412773E-003	-5,5803489E-003
30/08/2025 21:47:41.8380	4,7958097E-003	-5,5761854E-003
30/08/2025 21:47:44.1380	9,8867435E-003	-5,5782478E-003
30/08/2025 21:47:46.4380	1,0523110E-002	-5,5773309E-003
30/08/2025 21:47:48.7380	1,0523110E-002	-5,5767200E-003
30/08/2025 21:47:51.0380	4,7958097E-003	-5,5767964E-003
30/08/2025 21:47:53.3380	8,6140092E-003	-5,5835960E-003
30/08/2025 21:47:55.6380	9,8867435E-003	-5,5820299E-003
30/08/2025 21:47:57.9380	4,1594426E-003	-5,5756122E-003
30/08/2025 21:48:00.2380	8,6140092E-003	-5,5779042E-003
30/08/2025 21:48:02.5380	1,2432210E-002	-5,5803871E-003
30/08/2025 21:48:04.8380	8,6140092E-003	-5,5750394E-003
30/08/2025 21:48:07.1380	4,1594426E-003	-5,5788206E-003
30/08/2025 21:48:09.4380	5,4321769E-003	-5,5796616E-003
30/08/2025 21:48:11.7380	1,0523110E-002	-5,5805398E-003
30/08/2025 21:48:14.0380	1,1795843E-002	-5,5803107E-003
30/08/2025 21:48:16.3380	2,2503431E-003	-5,5790120E-003
30/08/2025 21:48:18.6380	5,4321769E-003	-5,5822972E-003
30/08/2025 21:48:20.9380	4,7958097E-003	-5,5788206E-003
30/08/2025 21:48:23.2380	7,9776440E-003	-5,5841687E-003
30/08/2025 21:48:25.5380	7,3412773E-003	-5,5767582E-003
30/08/2025 21:48:27.8380	8,6140092E-003	-5,5794320E-003
30/08/2025 21:48:30.1380	9,2503773E-003	-5,5869957E-003
30/08/2025 21:48:32.4380	1,3704944E-002	-5,5799289E-003
30/08/2025 21:48:34.7380	1,3704944E-002	-5,5826791E-003
30/08/2025 21:48:37.0380	9,8867435E-003	-5,5818767E-003
30/08/2025 21:48:39.3380	1,0523110E-002	-5,5862698E-003
30/08/2025 21:48:41.6380	1,0523110E-002	-5,5813040E-003
30/08/2025 21:48:43.9380	7,3412773E-003	-5,5782101E-003
30/08/2025 21:48:46.2380	5,4321769E-003	-5,5813040E-003
30/08/2025 21:48:48.5380	-1,5678566E-003	-5,5797757E-003
30/08/2025 21:48:50.8380	9,8867435E-003	-5,5781719E-003
30/08/2025 21:48:53.1380	6,0685435E-003	-5,5844365E-003
30/08/2025 21:48:55.4380	1,1159477E-002	-5,5784774E-003
30/08/2025 21:48:57.7380	6,0685435E-003	-5,5768345E-003
30/08/2025 21:49:00.0380	4,1594426E-003	-5,5830614E-003
30/08/2025 21:49:02.3380	2,8867100E-003	-5,5821445E-003
30/08/2025 21:49:04.6380	1,1159477E-002	-5,5826027E-003
30/08/2025 21:49:06.9380	7,3412773E-003	-5,5799671E-003
30/08/2025 21:49:09.2380	7,9776440E-003	-5,5878744E-003
30/08/2025 21:49:11.5380	-2,2042233E-003	-5,5787065E-003
30/08/2025 21:49:13.8380	7,9776440E-003	-5,5795852E-003
30/08/2025 21:49:16.1380	1,1795843E-002	-5,5840164E-003
30/08/2025 21:49:18.4380	4,7958097E-003	-5,5768727E-003
30/08/2025 21:49:20.7380	4,7958097E-003	-5,5834432E-003
30/08/2025 21:49:23.0380	8,6140092E-003	-5,5808835E-003
30/08/2025 21:49:25.3380	7,9776440E-003	-5,5766818E-003
30/08/2025 21:49:27.6380	4,1594426E-003	-5,5820681E-003
30/08/2025 21:49:29.9380	3,5230771E-003	-5,5828700E-003
30/08/2025 21:49:32.2380	7,9776440E-003	-5,5803489E-003
30/08/2025 21:49:34.5380	3,5230771E-003	-5,5780187E-003
30/08/2025 21:49:36.8380	5,4321769E-003	-5,5785156E-003
30/08/2025 21:49:39.1380	1,2432210E-002	-5,5773691E-003
30/08/2025 21:49:41.4380	1,0523110E-002	-5,5826027E-003
30/08/2025 21:49:43.7380	1,1159477E-002	-5,5817622E-003
30/08/2025 21:49:46.0380	2,8867100E-003	-5,5800816E-003
30/08/2025 21:49:48.3380	-2,9512335E-004	-5,5711428E-003
30/08/2025 21:49:50.6380	9,2503773E-003	-5,5814185E-003
30/08/2025 21:49:52.9380	4,1594426E-003	-5,5880654E-003
30/08/2025 21:49:55.2380	8,6140092E-003	-5,5745807E-003
30/08/2025 21:49:57.5380	4,1594426E-003	-5,5805016E-003
30/08/2025 21:49:59.8380	2,2503431E-003	-5,5794702E-003
30/08/2025 21:50:02.1380	7,3412773E-003	-5,5774073E-003
30/08/2025 21:50:04.4380	1,0523110E-002	-5,5810367E-003
30/08/2025 21:50:06.7380	6,7049102E-003	-5,5824881E-003
30/08/2025 21:50:09.0380	7,3412773E-003	-5,5875690E-003
30/08/2025 21:50:11.3380	4,1594426E-003	-5,5825263E-003
30/08/2025 21:50:13.6380	8,6140092E-003	-5,5756886E-003
30/08/2025 21:50:15.9380	1,3068578E-002	-5,5761090E-003
30/08/2025 21:50:18.2380	3,5230771E-003	-5,5822204E-003
30/08/2025 21:50:20.5380	2,8867100E-003	-5,5781333E-003
30/08/2025 21:50:22.8380	9,8867435E-003	-5,5817240E-003
30/08/2025 21:50:25.1380	3,5230771E-003	-5,5852765E-003
30/08/2025 21:50:27.4380	3,5230771E-003	-5,5822204E-003
30/08/2025 21:50:29.7380	4,1594426E-003	-5,5844365E-003
30/08/2025 21:50:32.0380	9,8867435E-003	-5,5825263E-003
30/08/2025 21:50:34.3380	8,6140092E-003	-5,5833668E-003
30/08/2025 21:50:36.6380	6,7049102E-003	-5,5847033E-003
30/08/2025 21:50:38.9380	6,7049102E-003	-5,5864225E-003
30/08/2025 21:50:41.2380	6,7049102E-003	-5,5778660E-003
30/08/2025 21:50:43.5380	4,7958097E-003	-5,5895932E-003
30/08/2025 21:50:45.8380	6,7049102E-003	-5,5871485E-003
30/08/2025 21:50:48.1380	2,8867100E-003	-5,5822586E-003
30/08/2025 21:50:50.4380	3,5230771E-003	-5,5796234E-003
30/08/2025 21:50:52.7380	7,9776440E-003	-5,5915415E-003
30/08/2025 21:50:55.0380	9,8867435E-003	-5,5847801E-003
30/08/2025 21:50:57.3380	2,2503431E-003	-5,5805785E-003
30/08/2025 21:50:59.6380	2,8867100E-003	-5,5845510E-003
30/08/2025 21:51:01.8906	2,6508831E+001	4,2933407E-003
30/08/2025 21:51:04.1906	2,6506285E+001	6,7104609E-003
30/08/2025 21:51:06.4906	2,6505650E+001	8,0673499E-003
30/08/2025 21:51:08.7906	2,6505014E+001	8,9845238E-003
30/08/2025 21:51:11.0906	2,6505650E+001	9,7447727E-003
30/08/2025 21:51:13.3906	2,6506285E+001	1,0321357E-002
30/08/2025 21:51:15.6906	2,6502468E+001	1,0848437E-002
30/08/2025 21:51:17.9906	2,6501196E+001	1,1226575E-002
30/08/2025 21:51:20.2906	2,6508831E+001	1,1592832E-002
30/08/2025 21:51:22.5906	2,6505650E+001	1,1875472E-002
30/08/2025 21:51:24.8906	2,6514559E+001	1,2143213E-002
30/08/2025 21:51:27.1906	2,6513922E+001	1,2350027E-002
30/08/2025 21:51:29.4906	2,6505650E+001	1,2540108E-002
30/08/2025 21:51:31.7906	2,6501831E+001	1,2696497E-002
30/08/2025 21:51:34.0906	2,6502468E+001	1,2855408E-002
30/08/2025 21:51:36.3906	2,6502468E+001	1,2975506E-002
30/08/2025 21:51:38.6906	2,6506924E+001	1,3090449E-002
30/08/2025 21:51:40.9906	2,6510105E+001	1,3202413E-002
30/08/2025 21:51:43.2906	2,6503107E+001	1,3288935E-002
30/08/2025 21:51:45.5906	2,6508831E+001	1,3383517E-002
30/08/2025 21:51:47.8906	2,6515833E+001	1,3436156E-002
30/08/2025 21:51:50.1906	2,6505650E+001	1,3515421E-002
30/08/2025 21:51:52.4906	2,6504377E+001	1,3566150E-002
30/08/2025 21:51:54.7906	2,6508831E+001	1,3624825E-002
30/08/2025 21:51:57.0906	2,6508831E+001	1,3649502E-002
30/08/2025 21:51:59.3906	2,6512012E+001	1,3715128E-002
30/08/2025 21:52:01.6906	2,6503107E+001	1,3726894E-002
30/08/2025 21:52:03.9906	2,6510105E+001	1,3786371E-002
30/08/2025 21:52:06.2906	2,6511377E+001	1,3787403E-002
30/08/2025 21:52:08.5906	2,6508831E+001	1,3849401E-002
30/08/2025 21:52:10.8906	2,6512012E+001	1,3847719E-002
30/08/2025 21:52:13.1906	2,6510105E+001	1,3911857E-002
30/08/2025 21:52:15.4906	2,6508196E+001	1,3888746E-002
30/08/2025 21:52:17.7906	2,6510105E+001	1,3957772E-002
30/08/2025 21:52:20.0906	2,6511377E+001	1,3933516E-002
30/08/2025 21:52:22.3906	2,6510105E+001	1,3999410E-002
30/08/2025 21:52:24.6906	2,6507559E+001	1,3968812E-002
30/08/2025 21:52:26.9906	2,6515833E+001	1,4039711E-002
30/08/2025 21:52:29.2906	2,6502468E+001	1,4016752E-002
30/08/2025 21:52:31.5906	2,6503742E+001	1,4077490E-002
30/08/2025 21:52:33.8906	2,6505650E+001	1,4038794E-002
30/08/2025 21:52:36.1906	2,6510742E+001	1,4103848E-002
30/08/2025 21:52:38.4906	2,6502468E+001	1,4076955E-002
30/08/2025 21:52:40.7906	2,6503742E+001	1,4144837E-002
30/08/2025 21:52:43.0906	2,6501831E+001	1,4115270E-002
30/08/2025 21:52:45.3906	2,6510105E+001	1,4167870E-002
30/08/2025 21:52:47.6906	2,6507559E+001	1,4157442E-002
30/08/2025 21:52:49.9906	2,6508831E+001	1,4207674E-002
30/08/2025 21:52:52.2906	2,6505650E+001	1,4175587E-002
30/08/2025 21:52:54.5906	2,6511377E+001	1,4231090E-002
30/08/2025 21:52:56.8906	2,6509470E+001	1,4213405E-002
30/08/2025 21:52:59.1906	2,6509470E+001	1,4275365E-002
30/08/2025 21:53:01.4906	2,6506924E+001	1,4247822E-002
30/08/2025 21:53:03.6908	6,7049102E-003	2,3730451E-003
30/08/2025 21:53:05.9908	5,4321769E-003	9,3708228E-004
30/08/2025 21:53:08.2908	9,7761012E-004	-5,7025092E-005
30/08/2025 21:53:10.5908	8,6140092E-003	-8,3091151E-004
30/08/2025 21:53:12.8908	7,3412773E-003	-1,4240755E-003
30/08/2025 21:53:15.1908	6,7049102E-003	-1,9299915E-003
30/08/2025 21:53:17.4908	4,1594426E-003	-2,3305912E-003
30/08/2025 21:53:19.7908	1,2432210E-002	-2,6717139E-003
30/08/2025 21:53:22.0908	3,5230771E-003	-2,9561867E-003
30/08/2025 21:53:24.3908	6,7049102E-003	-3,1985252E-003
30/08/2025 21:53:26.6908	9,2503773E-003	-3,4030459E-003
30/08/2025 21:53:28.9908	-2,9512335E-004	-3,5815528E-003
30/08/2025 21:53:31.2908	-2,8405902E-003	-3,7273227E-003
30/08/2025 21:53:33.5908	1,1795843E-002	-3,8613651E-003
30/08/2025 21:53:35.8908	1,0523110E-002	-3,9787530E-003
30/08/2025 21:53:38.1908	1,1795843E-002	-4,0771933E-003
30/08/2025 21:53:40.4908	7,3412773E-003	-4,1637155E-003
30/08/2025 21:53:42.7908	1,1159477E-002	-4,2452714E-003
30/08/2025 21:53:45.0908	7,3412773E-003	-4,3119299E-003
30/08/2025 21:53:47.3908	1,3704944E-002	-4,3653711E-003
30/08/2025 21:53:49.6908	2,2503431E-003	-4,4116313E-003
30/08/2025 21:53:51.9908	7,9776440E-003	-4,4541094E-003
30/08/2025 21:53:54.2908	3,5230771E-003	-4,4850889E-003
30/08/2025 21:53:56.5908	3,4124311E-004	-4,5172912E-003
30/08/2025 21:53:58.8908	5,4321769E-003	-4,5456351E-003
30/08/2025 21:54:01.1908	3,4124311E-004	-4,5633214E-003
30/08/2025 21:54:03.4908	5,4321769E-003	-4,5744763E-003
30/08/2025 21:54:05.7908	1,0523110E-002	-4,5876168E-003
30/08/2025 21:54:08.0908	7,9776440E-003	-4,5963647E-003
30/08/2025 21:54:10.3908	9,8867435E-003	-4,6029347E-003
30/08/2025 21:54:12.6908	3,5230771E-003	-4,6106894E-003
30/08/2025 21:54:14.9908	6,0685435E-003	-4,6076337E-003
30/08/2025 21:54:17.2908	4,1594426E-003	-4,6097725E-003
30/08/2025 21:54:19.5908	7,3412773E-003	-4,6148147E-003
30/08/2025 21:54:21.8908	6,0685435E-003	-4,6137450E-003
30/08/2025 21:54:24.1908	9,8867435E-003	-4,6147001E-003
30/08/2025 21:54:26.4908	1,0523110E-002	-4,6097343E-003
30/08/2025 21:54:28.7908	9,8867435E-003	-4,6111098E-003
30/08/2025 21:54:31.0908	7,3412773E-003	-4,6158079E-003
30/08/2025 21:54:33.3908	9,7761012E-004	-4,6113385E-003
30/08/2025 21:54:35.6908	1,3704944E-002	-4,6066022E-003
30/08/2025 21:54:37.9908	4,7958097E-003	-4,6048062E-003
30/08/2025 21:54:40.2908	7,3412773E-003	-4,6028201E-003
30/08/2025 21:54:42.5908	9,2503773E-003	-4,6033165E-003
30/08/2025 21:54:44.8908	1,0523110E-002	-4,6006427E-003
30/08/2025 21:54:47.1908	3,5230771E-003	-4,5969374E-003
30/08/2025 21:54:49.4908	4,7958097E-003	-4,5912075E-003
30/08/2025 21:54:51.7908	1,0523110E-002	-4,5899851E-003
30/08/2025 21:54:54.0908	5,4321769E-003	-4,5899851E-003
30/08/2025 21:54:56.3908	4,7958097E-003	-4,5824982E-003
30/08/2025 21:54:58.6908	4,7958097E-003	-4,5822305E-003
30/08/2025 21:55:00.9908	7,3412773E-003	-4,5824600E-003
30/08/2025 21:55:03.1910	-2,6487148E+001	-1,6031886E-002
30/08/2025 21:55:05.4910	-2,6480783E+001	-1,7660908E-002
30/08/2025 21:55:07.7910	-2,6483328E+001	-1,8755289E-002
30/08/2025 21:55:10.0910	-2,6485874E+001	-1,9568369E-002
30/08/2025 21:55:12.3910	-2,6488420E+001	-2,0224180E-002
30/08/2025 21:55:14.6910	-2,6478872E+001	-2,0764017E-002
30/08/2025 21:55:16.9910	-2,6483963E+001	-2,1204498E-002
30/08/2025 21:55:19.2910	-2,6485874E+001	-2,1592148E-002
30/08/2025 21:55:21.5910	-2,6485874E+001	-2,1894688E-002
30/08/2025 21:55:23.8910	-2,6484600E+001	-2,2178434E-002
30/08/2025 21:55:26.1910	-2,6481419E+001	-2,2399610E-002
30/08/2025 21:55:28.4910	-2,6481419E+001	-2,2619832E-002
30/08/2025 21:55:30.7910	-2,6489691E+001	-2,2770530E-002
30/08/2025 21:55:33.0910	-2,6487148E+001	-2,2954118E-002
30/08/2025 21:55:35.3910	-2,6488420E+001	-2,3062222E-002
30/08/2025 21:55:37.6910	-2,6492237E+001	-2,3213111E-002
30/08/2025 21:55:39.9910	-2,6487783E+001	-2,3291687E-002
30/08/2025 21:55:42.2910	-2,6490965E+001	-2,3423208E-002
30/08/2025 21:55:44.5910	-2,6484600E+001	-2,3482952E-002
30/08/2025 21:55:46.8910	-2,6493511E+001	-2,3601638E-002
30/08/2025 21:55:49.1910	-2,6487148E+001	-2,3617033E-002
30/08/2025 21:55:51.4910	-2,6487148E+001	-2,3725254E-002
30/08/2025 21:55:53.7910	-2,6484600E+001	-2,3739388E-002
30/08/2025 21:55:56.0910	-2,6487148E+001	-2,3837904E-002
30/08/2025 21:55:58.3910	-2,6477600E+001	-2,3832137E-002
30/08/2025 21:56:00.6910	-2,6487783E+001	-2,3925304E-002
30/08/2025 21:56:02.9910	-2,6485235E+001	-2,3920568E-002
30/08/2025 21:56:05.2910	-2,6482693E+001	-2,3988754E-002
30/08/2025 21:56:07.5910	-2,6492237E+001	-2,3971910E-002
30/08/2025 21:56:09.8910	-2,6488420E+001	-2,4043417E-002
30/08/2025 21:56:12.1910	-2,6487783E+001	-2,4021607E-002
30/08/2025 21:56:14.4910	-2,6485874E+001	-2,4101635E-002
30/08/2025 21:56:16.7910	-2,6486509E+001	-2,4072718E-002
30/08/2025 21:56:19.0910	-2,6488420E+001	-2,4128068E-002
30/08/2025 21:56:21.3910	-2,6488420E+001	-2,4117067E-002
30/08/2025 21:56:23.6910	-2,6482693E+001	-2,4179677E-002
30/08/2025 21:56:25.9910	-2,6487783E+001	-2,4150606E-002
30/08/2025 21:56:28.2910	-2,6485874E+001	-2,4208060E-002
30/08/2025 21:56:30.5910	-2,6488420E+001	-2,4190295E-002
30/08/2025 21:56:32.8910	-2,6489056E+001	-2,4252448E-002
30/08/2025 21:56:35.1910	-2,6489056E+001	-2,4222346E-002
30/08/2025 21:56:37.4910	-2,6477600E+001	-2,4283236E-002
30/08/2025 21:56:39.7910	-2,6484600E+001	-2,4267994E-002
30/08/2025 21:56:42.0910	-2,6485874E+001	-2,4315361E-002
30/08/2025 21:56:44.3910	-2,6482054E+001	-2,4299433E-002
30/08/2025 21:56:46.6910	-2,6487783E+001	-2,4339426E-002
30/08/2025 21:56:48.9910	-2,6483328E+001	-2,4337593E-002
30/08/2025 21:56:51.2910	-2,6483328E+001	-2,4381638E-002
30/08/2025 21:56:53.5910	-2,6485235E+001	-2,4381025E-002
30/08/2025 21:56:55.8910	-2,6482693E+001	-2,4401540E-002
30/08/2025 21:56:58.1910	-2,6483963E+001	-2,4419915E-002
30/08/2025 21:57:00.4910	-2,6485874E+001	-2,4444973E-002
30/08/2025 21:57:02.6912	5,3016052E+001	8,5319728E-003
30/08/2025 21:57:04.9912	5,3007137E+001	1,4079935E-002
30/08/2025 21:57:07.2912	5,3015415E+001	1,7491011E-002
30/08/2025 21:57:09.5912	5,3010960E+001	2,0149935E-002
30/08/2025 21:57:11.8912	5,3012230E+001	2,2112058E-002
30/08/2025 21:57:14.1912	5,3020500E+001	2,3817023E-002
30/08/2025 21:57:16.4912	5,3006504E+001	2,5122724E-002
30/08/2025 21:57:18.7912	5,3016685E+001	2,6339345E-002
30/08/2025 21:57:21.0912	5,3010323E+001	2,7218089E-002
30/08/2025 21:57:23.3912	5,3009686E+001	2,8072195E-002
30/08/2025 21:57:25.6912	5,3012230E+001	2,8710397E-002
30/08/2025 21:57:27.9912	5,3010323E+001	2,9381182E-002
30/08/2025 21:57:30.2912	5,3010960E+001	2,9817920E-002
30/08/2025 21:57:32.5912	5,3011597E+001	3,0331247E-002
30/08/2025 21:57:34.8912	5,3016052E+001	3,0689634E-002
30/08/2025 21:57:37.1912	5,3020500E+001	3,1088209E-002
30/08/2025 21:57:39.4912	5,3010960E+001	3,1371422E-002
30/08/2025 21:57:41.7912	5,3010960E+001	3,1677745E-002
30/08/2025 21:57:44.0912	5,3007774E+001	3,1895366E-002
30/08/2025 21:57:46.3912	5,3014778E+001	3,2169297E-002
30/08/2025 21:57:48.6912	5,3010323E+001	3,2325383E-002
30/08/2025 21:57:50.9912	5,3009686E+001	3,2512557E-002
30/08/2025 21:57:53.2912	5,3009686E+001	3,2670517E-002
30/08/2025 21:57:55.5912	5,3005867E+001	3,2812543E-002
30/08/2025 21:57:57.8912	5,3010323E+001	3,2919846E-002
30/08/2025 21:58:00.1912	5,3007774E+001	3,3023138E-002
30/08/2025 21:58:02.4912	5,3009686E+001	3,3126693E-002
30/08/2025 21:58:04.7912	5,3010960E+001	3,3198547E-002
30/08/2025 21:58:07.0912	5,3012230E+001	3,3287782E-002
30/08/2025 21:58:09.3912	5,3019871E+001	3,3323344E-002
30/08/2025 21:58:11.6912	5,3012867E+001	3,3418007E-002
30/08/2025 21:58:13.9912	5,3009686E+001	3,3432979E-002
30/08/2025 21:58:16.2912	5,3009686E+001	3,3525884E-002
30/08/2025 21:58:18.5912	5,3009686E+001	3,3521067E-002
30/08/2025 21:58:20.8912	5,3015415E+001	3,3633258E-002
30/08/2025 21:58:23.1912	5,3012230E+001	3,3623826E-002
30/08/2025 21:58:25.4912	5,3012867E+001	3,3728797E-002
30/08/2025 21:58:27.7912	5,3011597E+001	3,3674248E-002
30/08/2025 21:58:30.0912	5,3019871E+001	3,3793930E-002
30/08/2025 21:58:32.3912	5,3008415E+001	3,3759244E-002
30/08/2025 21:58:34.6912	5,3012230E+001	3,3862229E-002
30/08/2025 21:58:36.9912	5,3010323E+001	3,3807639E-002
30/08/2025 21:58:39.2912	5,3012230E+001	3,3936411E-002
30/08/2025 21:58:41.5912	5,3009686E+001	3,3895195E-002
30/08/2025 21:58:43.8912	5,3014145E+001	3,4013346E-002
30/08/2025 21:58:46.1912	5,3009045E+001	3,3937443E-002
30/08/2025 21:58:48.4912	5,3013508E+001	3,4067973E-002
30/08/2025 21:58:50.7912	5,3017323E+001	3,4003299E-002
30/08/2025 21:58:53.0912	5,3016685E+001	3,4133673E-002
30/08/2025 21:58:55.3912	5,3016052E+001	3,4069844E-002
30/08/2025 21:58:57.6912	5,3010960E+001	3,4194984E-002
30/08/2025 21:58:59.9912	5,3010323E+001	3,4140628E-002
30/08/2025 21:59:02.1916	5,4321769E-003	1,3410295E-002
30/08/2025 21:59:04.4916	8,6140092E-003	9,1997785E-003
30/08/2025 21:59:06.7916	6,0685435E-003	6,6911704E-003
30/08/2025 21:59:09.0916	5,4321769E-003	4,9049547E-003
30/08/2025 21:59:11.3916	6,7049102E-003	3,4916068E-003
30/08/2025 21:59:13.6916	1,3068578E-002	2,3802645E-003
30/08/2025 21:59:15.9916	6,7049102E-003	1,4482316E-003
30/08/2025 21:59:18.2916	1,1159477E-002	6,7243516E-004
30/08/2025 21:59:20.5916	7,9776440E-003	3,3240653E-005
30/08/2025 21:59:22.8916	8,6140092E-003	-5,0021731E-004
30/08/2025 21:59:25.1916	6,7049102E-003	-9,6774264E-004
30/08/2025 21:59:27.4916	7,3412773E-003	-1,3579520E-003
30/08/2025 21:59:29.7916	-2,2042233E-003	-1,6864305E-003
30/08/2025 21:59:32.0916	1,4341311E-002	-1,9846170E-003
30/08/2025 21:59:34.3916	8,6140092E-003	-2,2284454E-003
30/08/2025 21:59:36.6916	1,0523110E-002	-2,4515693E-003
30/08/2025 21:59:38.9916	7,9776440E-003	-2,6438662E-003
30/08/2025 21:59:41.2916	6,7049102E-003	-2,8231372E-003
30/08/2025 21:59:43.5916	4,1594426E-003	-2,9624130E-003
30/08/2025 21:59:45.8916	2,8867100E-003	-3,0982511E-003
30/08/2025 21:59:48.1916	2,2503431E-003	-3,2029944E-003
30/08/2025 21:59:50.4916	7,9776440E-003	-3,2963925E-003
30/08/2025 21:59:52.7916	1,0523110E-002	-3,3695833E-003
30/08/2025 21:59:55.0916	1,0523110E-002	-3,4409782E-003
30/08/2025 21:59:57.3916	7,3412773E-003	-3,4921656E-003
30/08/2025 21:59:59.6916	1,6139771E-003	-3,5345673E-003
30/08/2025 22:00:01.9916	7,3412773E-003	-3,5710097E-003
30/08/2025 22:00:04.2916	8,6140092E-003	-3,5969857E-003
30/08/2025 22:00:06.5916	4,1594426E-003	-3,6208986E-003
30/08/2025 22:00:08.8916	7,3412773E-003	-3,6280800E-003
30/08/2025 22:00:11.1916	6,7049102E-003	-3,6442003E-003
30/08/2025 22:00:13.4916	7,3412773E-003	-3,6534828E-003
30/08/2025 22:00:15.7916	6,0685435E-003	-3,6604735E-003
30/08/2025 22:00:18.0916	9,2503773E-003	-3,6602824E-003
30/08/2025 22:00:20.3916	6,0685435E-003	-3,6599387E-003
30/08/2025 22:00:22.6916	2,2503431E-003	-3,6645990E-003
30/08/2025 22:00:24.9916	1,3068578E-002	-3,6594803E-003
30/08/2025 22:00:27.2916	6,0685435E-003	-3,6590982E-003
30/08/2025 22:00:29.5916	2,2503431E-003	-3,6530627E-003
30/08/2025 22:00:31.8916	5,4321769E-003	-3,6495100E-003
30/08/2025 22:00:34.1916	6,7049102E-003	-3,6508851E-003
30/08/2025 22:00:36.4916	5,4321769E-003	-3,6432834E-003
30/08/2025 22:00:38.7916	2,8867100E-003	-3,6401893E-003
30/08/2025 22:00:41.0916	3,4124311E-004	-3,6295699E-003
30/08/2025 22:00:43.3916	1,0523110E-002	-3,6253298E-003
30/08/2025 22:00:45.6916	9,8867435E-003	-3,6232669E-003
30/08/2025 22:00:47.9916	2,8867100E-003	-3,6169258E-003
30/08/2025 22:00:50.2916	4,1594426E-003	-3,6150920E-003
30/08/2025 22:00:52.5916	8,6140092E-003	-3,6055422E-003
30/08/2025 22:00:54.8916	6,0685435E-003	-3,6016461E-003
30/08/2025 22:00:57.1916	9,2503773E-003	-3,5983990E-003
30/08/2025 22:00:59.4916	7,3412773E-003	-3,5946171E-003
30/08/2025 22:01:01.6918	-5,2975906E+001	-2,2097146E-002
30/08/2025 22:01:03.9918	-5,2976543E+001	-2,7835650E-002
30/08/2025 22:01:06.2918	-5,2981636E+001	-3,0637516E-002
30/08/2025 22:01:08.5918	-5,2974636E+001	-3,2567400E-002
30/08/2025 22:01:10.8918	-5,2980999E+001	-3,4133468E-002
30/08/2025 22:01:13.1918	-5,2985451E+001	-3,5310134E-002
30/08/2025 22:01:15.4918	-5,2978451E+001	-3,6350999E-002
30/08/2025 22:01:17.7918	-5,2976543E+001	-3,7163202E-002
30/08/2025 22:01:20.0918	-5,2975266E+001	-3,7921920E-002
30/08/2025 22:01:22.3918	-5,2973995E+001	-3,8482536E-002
30/08/2025 22:01:24.6918	-5,2976543E+001	-3,9026119E-002
30/08/2025 22:01:26.9918	-5,2977180E+001	-3,9459605E-002
30/08/2025 22:01:29.2918	-5,2974636E+001	-3,9866284E-002
30/08/2025 22:01:31.5918	-5,2980358E+001	-4,0189754E-002
30/08/2025 22:01:33.8918	-5,2981636E+001	-4,0493291E-002
30/08/2025 22:01:36.1918	-5,2979729E+001	-4,0774632E-002
30/08/2025 22:01:38.4918	-5,2975906E+001	-4,1027702E-002
30/08/2025 22:01:40.7918	-5,2979729E+001	-4,1244026E-002
30/08/2025 22:01:43.0918	-5,2980358E+001	-4,1412868E-002
30/08/2025 22:01:45.3918	-5,2972725E+001	-4,1609716E-002
30/08/2025 22:01:47.6918	-5,2975266E+001	-4,1742723E-002
30/08/2025 22:01:49.9918	-5,2982273E+001	-4,1914202E-002
30/08/2025 22:01:52.2918	-5,2976543E+001	-4,1991554E-002
30/08/2025 22:01:54.5918	-5,2977180E+001	-4,2156119E-002
30/08/2025 22:01:56.8918	-5,2978451E+001	-4,2211015E-002
30/08/2025 22:01:59.1918	-5,2981636E+001	-4,2349678E-002
30/08/2025 22:02:01.4918	-5,2978451E+001	-4,2357739E-002
30/08/2025 22:02:03.7918	-5,2977814E+001	-4,2501789E-002
30/08/2025 22:02:06.0918	-5,2972088E+001	-4,2498197E-002
30/08/2025 22:02:08.3918	-5,2977180E+001	-4,2623952E-002
30/08/2025 22:02:10.6918	-5,2975906E+001	-4,2603631E-002
30/08/2025 22:02:12.9918	-5,2977814E+001	-4,2741146E-002
30/08/2025 22:02:15.2918	-5,2976543E+001	-4,2709671E-002
30/08/2025 22:02:17.5918	-5,2971451E+001	-4,2837869E-002
30/08/2025 22:02:19.8918	-5,2977814E+001	-4,2785268E-002
30/08/2025 22:02:22.1918	-5,2981636E+001	-4,2918086E-002
30/08/2025 22:02:24.4918	-5,2970818E+001	-4,2868007E-002
30/08/2025 22:02:26.7918	-5,2976543E+001	-4,3001786E-002
30/08/2025 22:02:29.0918	-5,2982906E+001	-4,2944904E-002
30/08/2025 22:02:31.3918	-5,2976543E+001	-4,3069474E-002
30/08/2025 22:02:33.6918	-5,2984180E+001	-4,3033298E-002
30/08/2025 22:02:35.9918	-5,2980999E+001	-4,3161761E-002
30/08/2025 22:02:38.2918	-5,2979729E+001	-4,3092430E-002
30/08/2025 22:02:40.5918	-5,2979088E+001	-4,3211080E-002
30/08/2025 22:02:42.8918	-5,2976543E+001	-4,3163102E-002
30/08/2025 22:02:45.1918	-5,2981636E+001	-4,3297026E-002
30/08/2025 22:02:47.4918	-5,2978451E+001	-4,3238316E-002
30/08/2025 22:02:49.7918	-5,2979088E+001	-4,3361239E-002
30/08/2025 22:02:52.0918	-5,2981636E+001	-4,3317042E-002
30/08/2025 22:02:54.3918	-5,2975906E+001	-4,3432597E-002
30/08/2025 22:02:56.6918	-5,2977814E+001	-4,3389048E-002
30/08/2025 22:02:58.9918	-5,2977814E+001	-4,3486882E-002
30/08/2025 22:03:01.2918	-5,2977814E+001	-4,3469425E-002
30/08/2025 22:03:03.4920	7,9513718E+001	1,5659070E-002
30/08/2025 22:03:05.7920	7,9509262E+001	2,3047453E-002
30/08/2025 22:03:08.0920	7,9509903E+001	2,8318468E-002
30/08/2025 22:03:10.3920	7,9506721E+001	3,2140076E-002
30/08/2025 22:03:12.6920	7,9511810E+001	3,5400070E-002
30/08/2025 22:03:14.9920	7,9506721E+001	3,7827428E-002
30/08/2025 22:03:17.2920	7,9511810E+001	4,0085826E-002
30/08/2025 22:03:19.5920	7,9509262E+001	4,1760080E-002
30/08/2025 22:03:21.8920	7,9507347E+001	4,3398157E-002
30/08/2025 22:03:24.1920	7,9507347E+001	4,4545330E-002
30/08/2025 22:03:26.4920	7,9509262E+001	4,5784108E-002
30/08/2025 22:03:28.7920	7,9510536E+001	4,6613880E-002
30/08/2025 22:03:31.0920	7,9507996E+001	4,7579333E-002
30/08/2025 22:03:33.3920	7,9504814E+001	4,8156038E-002
30/08/2025 22:03:35.6920	7,9514359E+001	4,8932560E-002
30/08/2025 22:03:37.9920	7,9507996E+001	4,9381252E-002
30/08/2025 22:03:40.2920	7,9511810E+001	5,0032709E-002
30/08/2025 22:03:42.5920	7,9509262E+001	5,0354615E-002
30/08/2025 22:03:44.8920	7,9510536E+001	5,0863739E-002
30/08/2025 22:03:47.1920	7,9509262E+001	5,1125754E-002
30/08/2025 22:03:49.4920	7,9507347E+001	5,1550876E-002
30/08/2025 22:03:51.7920	7,9510536E+001	5,1716741E-002
30/08/2025 22:03:54.0920	7,9509262E+001	5,2048314E-002
30/08/2025 22:03:56.3920	7,9509903E+001	5,2190147E-002
30/08/2025 22:03:58.6919	7,9507996E+001	5,2469615E-002
30/08/2025 22:04:00.9920	7,9503532E+001	5,2540552E-002
30/08/2025 22:04:03.2919	7,9508629E+001	5,2736364E-002
30/08/2025 22:04:05.5919	7,9508629E+001	5,2818228E-002
30/08/2025 22:04:07.8919	7,9508629E+001	5,2980386E-002
30/08/2025 22:04:10.1919	7,9504181E+001	5,3026069E-002
30/08/2025 22:04:12.4919	7,9501625E+001	5,3143036E-002
30/08/2025 22:04:14.7919	7,9506088E+001	5,3212367E-002
30/08/2025 22:04:17.0919	7,9509903E+001	5,3333234E-002
30/08/2025 22:04:19.3919	7,9504181E+001	5,3373035E-002
30/08/2025 22:04:21.6919	7,9509262E+001	5,3427473E-002
30/08/2025 22:04:23.9919	7,9511810E+001	5,3513270E-002
30/08/2025 22:04:26.2919	7,9514992E+001	5,3555597E-002
30/08/2025 22:04:28.5919	7,9507996E+001	5,3646088E-002
30/08/2025 22:04:30.8919	7,9507347E+001	5,3658582E-002
30/08/2025 22:04:33.1919	7,9509262E+001	5,3758282E-002
30/08/2025 22:04:35.4919	7,9512444E+001	5,3775892E-002
30/08/2025 22:04:37.7919	7,9504814E+001	5,3883158E-002
30/08/2025 22:04:40.0919	7,9506088E+001	5,3845491E-002
30/08/2025 22:04:42.3919	7,9513084E+001	5,3984117E-002
30/08/2025 22:04:44.6919	7,9507996E+001	5,3945724E-002
30/08/2025 22:04:46.9919	7,9506721E+001	5,4086071E-002
30/08/2025 22:04:49.2919	7,9502899E+001	5,4026440E-002
30/08/2025 22:04:51.5919	7,9510536E+001	5,4197118E-002
30/08/2025 22:04:53.8919	7,9511177E+001	5,4141995E-002
30/08/2025 22:04:56.1919	7,9506088E+001	5,4313399E-002
30/08/2025 22:04:58.4919	7,9502899E+001	5,4217823E-002
30/08/2025 22:05:00.7919	7,9503532E+001	5,4402445E-002
30/08/2025 22:05:02.9923	4,7958097E-003	2,0303113E-002
30/08/2025 22:05:05.2923	1,5614044E-002	1,5143375E-002
30/08/2025 22:05:07.5923	1,2432210E-002	1,1871767E-002
30/08/2025 22:05:09.8923	4,7958097E-003	9,3749622E-003
30/08/2025 22:05:12.1923	4,1594426E-003	7,4577988E-003
30/08/2025 22:05:14.4923	3,5230771E-003	5,8499761E-003
30/08/2025 22:05:16.7923	5,4321769E-003	4,5536333E-003
30/08/2025 22:05:19.0923	9,8867435E-003	3,4729652E-003
30/08/2025 22:05:21.3923	1,3704944E-002	2,5690473E-003
30/08/2025 22:05:23.6923	5,4321769E-003	1,7843503E-003
30/08/2025 22:05:25.9923	3,5230771E-003	1,1440861E-003
30/08/2025 22:05:28.2923	6,0685435E-003	5,8801402E-004
30/08/2025 22:05:30.5923	2,2503431E-003	1,1048032E-004
30/08/2025 22:05:32.8923	7,3412773E-003	-3,1250427E-004
30/08/2025 22:05:35.1923	7,3412773E-003	-6,8185659E-004
30/08/2025 22:05:37.4923	7,3412773E-003	-9,9589583E-004
30/08/2025 22:05:39.7923	-2,8405902E-003	-1,2716207E-003
30/08/2025 22:05:42.0923	1,2432210E-002	-1,5131953E-003
30/08/2025 22:05:44.3923	1,1159477E-002	-1,7252797E-003
30/08/2025 22:05:46.6923	3,5230771E-003	-1,9100895E-003
30/08/2025 22:05:48.9923	7,3412773E-003	-2,0713303E-003
30/08/2025 22:05:51.2923	7,9776440E-003	-2,1941802E-003
30/08/2025 22:05:53.5923	9,2503773E-003	-2,3043097E-003
30/08/2025 22:05:55.8923	2,2503431E-003	-2,3952250E-003
30/08/2025 22:05:58.1923	4,7958097E-003	-2,4708984E-003
30/08/2025 22:06:00.4923	9,2503773E-003	-2,5304134E-003
30/08/2025 22:06:02.7923	7,9776440E-003	-2,5813337E-003
30/08/2025 22:06:05.0923	8,6140092E-003	-2,6170502E-003
30/08/2025 22:06:07.3923	8,6140092E-003	-2,6504749E-003
30/08/2025 22:06:09.6923	7,9776440E-003	-2,6704152E-003
30/08/2025 22:06:11.9923	1,2432210E-002	-2,6866116E-003
30/08/2025 22:06:14.2923	4,7958097E-003	-2,6966201E-003
30/08/2025 22:06:16.5923	1,1159477E-002	-2,7007456E-003
30/08/2025 22:06:18.8923	1,1159477E-002	-2,7067813E-003
30/08/2025 22:06:21.1923	6,0685435E-003	-2,7112504E-003
30/08/2025 22:06:23.4923	3,4124311E-004	-2,7050620E-003
30/08/2025 22:06:25.7923	9,2503773E-003	-2,6992941E-003
30/08/2025 22:06:28.0923	3,5230771E-003	-2,6976515E-003
30/08/2025 22:06:30.3923	3,5230771E-003	-2,6951304E-003
30/08/2025 22:06:32.6923	7,3412773E-003	-2,6856568E-003
30/08/2025 22:06:34.9923	6,7049102E-003	-2,6772909E-003
30/08/2025 22:06:37.2923	8,6140092E-003	-2,6762595E-003
30/08/2025 22:06:39.5923	9,2503773E-003	-2,6687344E-003
30/08/2025 22:06:41.8923	9,2503773E-003	-2,6578475E-003
30/08/2025 22:06:44.1923	9,2503773E-003	-2,6556700E-003
30/08/2025 22:06:46.4923	6,7049102E-003	-2,6437135E-003
30/08/2025 22:06:48.7923	1,1159477E-002	-2,6365703E-003
30/08/2025 22:06:51.0923	8,6140092E-003	-2,6278989E-003
30/08/2025 22:06:53.3923	3,4124311E-004	-2,6208321E-003
30/08/2025 22:06:55.6923	1,4341311E-002	-2,6232768E-003
30/08/2025 22:06:57.9923	1,0523110E-002	-2,6031455E-003
30/08/2025 22:07:00.2923	9,2503773E-003	-2,5948181E-003
30/08/2025 22:07:02.4925	-7,9475487E+001	-3,4721021E-002
30/08/2025 22:07:04.7925	-7,9474213E+001	-4,0712669E-002
30/08/2025 22:07:07.0925	-7,9479301E+001	-4,4221230E-002
30/08/2025 22:07:09.3925	-7,9478027E+001	-4,7011904E-002
30/08/2025 22:07:11.6925	-7,9472305E+001	-4,9039043E-002
30/08/2025 22:07:13.9925	-7,9471664E+001	-5,0903570E-002
30/08/2025 22:07:16.2925	-7,9473579E+001	-5,2225355E-002
30/08/2025 22:07:18.5925	-7,9477394E+001	-5,3557299E-002
30/08/2025 22:07:20.8925	-7,9477394E+001	-5,4478519E-002
30/08/2025 22:07:23.1925	-7,9476120E+001	-5,5468082E-002
30/08/2025 22:07:25.4925	-7,9478027E+001	-5,6095857E-002
30/08/2025 22:07:27.7925	-7,9476120E+001	-5,6857936E-002
30/08/2025 22:07:30.0925	-7,9473579E+001	-5,7330962E-002
30/08/2025 22:07:32.3925	-7,9474213E+001	-5,7951555E-002
30/08/2025 22:07:34.6925	-7,9476120E+001	-5,8299363E-002
30/08/2025 22:07:36.9925	-7,9477394E+001	-5,8775596E-002
30/08/2025 22:07:39.2925	-7,9479301E+001	-5,9076078E-002
30/08/2025 22:07:41.5925	-7,9477394E+001	-5,9470069E-002
30/08/2025 22:07:43.8925	-7,9471664E+001	-5,9690405E-002
30/08/2025 22:07:46.1925	-7,9472939E+001	-5,9987824E-002
30/08/2025 22:07:48.4925	-7,9473579E+001	-6,0183331E-002
30/08/2025 22:07:50.7925	-7,9476120E+001	-6,0451761E-002
30/08/2025 22:07:53.0925	-7,9485023E+001	-6,0591992E-002
30/08/2025 22:07:55.3925	-7,9472305E+001	-6,0753081E-002
30/08/2025 22:07:57.6925	-7,9466583E+001	-6,0904197E-002
30/08/2025 22:07:59.9925	-7,9463394E+001	-6,1029911E-002
30/08/2025 22:08:02.2925	-7,9472939E+001	-6,1155550E-002
30/08/2025 22:08:04.5925	-7,9476761E+001	-6,1227135E-002
30/08/2025 22:08:06.8925	-7,9469749E+001	-6,1366260E-002
30/08/2025 22:08:09.1925	-7,9467216E+001	-6,1434980E-002
30/08/2025 22:08:11.4925	-7,9471031E+001	-6,1545566E-002
30/08/2025 22:08:13.7925	-7,9472939E+001	-6,1555922E-002
30/08/2025 22:08:16.0925	-7,9474213E+001	-6,1700467E-002
30/08/2025 22:08:18.3925	-7,9472939E+001	-6,1705511E-002
30/08/2025 22:08:20.6925	-7,9474213E+001	-6,1840698E-002
30/08/2025 22:08:22.9925	-7,9479942E+001	-6,1825648E-002
30/08/2025 22:08:25.2925	-7,9476120E+001	-6,1984520E-002
30/08/2025 22:08:27.5925	-7,9478027E+001	-6,1967600E-002
30/08/2025 22:08:29.8925	-7,9472939E+001	-6,2112298E-002
30/08/2025 22:08:32.1925	-7,9471664E+001	-6,2046058E-002
30/08/2025 22:08:34.4925	-7,9472939E+001	-6,2210854E-002
30/08/2025 22:08:36.7925	-7,9482483E+001	-6,2153898E-002
30/08/2025 22:08:39.0925	-7,9476761E+001	-6,2326599E-002
30/08/2025 22:08:41.3925	-7,9475487E+001	-6,2251691E-002
30/08/2025 22:08:43.6925	-7,9474213E+001	-6,2450975E-002
30/08/2025 22:08:45.9925	-7,9474213E+001	-6,2374387E-002
30/08/2025 22:08:48.2925	-7,9476120E+001	-6,2577344E-002
30/08/2025 22:08:50.5925	-7,9469749E+001	-6,2460337E-002
30/08/2025 22:08:52.8925	-7,9470398E+001	-6,2663823E-002
30/08/2025 22:08:55.1925	-7,9472305E+001	-6,2573791E-002
30/08/2025 22:08:57.4925	-7,9476120E+001	-6,2778153E-002
30/08/2025 22:08:59.7925	-7,9472305E+001	-6,2684916E-002
30/08/2025 22:09:01.9927	1,0601331E+002	8,1560882E-003
30/08/2025 22:09:04.2927	1,0601076E+002	2,4421798E-002
30/08/2025 22:09:06.5927	1,0601394E+002	3,3619467E-002
30/08/2025 22:09:08.8927	1,0600758E+002	4,0005494E-002
30/08/2025 22:09:11.1927	1,0601266E+002	4,5180205E-002
30/08/2025 22:09:13.4927	1,0601140E+002	4,9150720E-002
30/08/2025 22:09:15.7927	1,0601266E+002	5,2643999E-002
30/08/2025 22:09:18.0927	1,0601266E+002	5,5340432E-002
30/08/2025 22:09:20.3927	1,0601140E+002	5,7852481E-002
30/08/2025 22:09:22.6927	1,0600885E+002	5,9755202E-002
30/08/2025 22:09:24.9927	1,0600631E+002	6,1597764E-002
30/08/2025 22:09:27.2927	1,0600694E+002	6,2915921E-002
30/08/2025 22:09:29.5927	1,0601394E+002	6,4336680E-002
30/08/2025 22:09:31.8927	1,0601076E+002	6,5321274E-002
30/08/2025 22:09:34.1927	1,0601331E+002	6,6475518E-002
30/08/2025 22:09:36.4927	1,0601140E+002	6,7169599E-002
30/08/2025 22:09:38.7927	1,0601012E+002	6,8138726E-002
30/08/2025 22:09:41.0927	1,0601012E+002	6,8675771E-002
30/08/2025 22:09:43.3927	1,0601076E+002	6,9479071E-002
30/08/2025 22:09:45.6927	1,0601904E+002	6,9840409E-002
30/08/2025 22:09:47.9927	1,0601140E+002	7,0514321E-002
30/08/2025 22:09:50.2927	1,0600503E+002	7,0762008E-002
30/08/2025 22:09:52.5927	1,0600758E+002	7,1360141E-002
30/08/2025 22:09:54.8927	1,0600822E+002	7,1503617E-002
30/08/2025 22:09:57.1927	1,0601522E+002	7,1992882E-002
30/08/2025 22:09:59.4927	1,0600758E+002	7,2085850E-002
30/08/2025 22:10:01.7927	1,0600312E+002	7,2505213E-002
30/08/2025 22:10:04.0927	1,0601076E+002	7,2497383E-002
30/08/2025 22:10:06.3927	1,0601266E+002	7,2855003E-002
30/08/2025 22:10:08.6927	1,0601331E+002	7,2849579E-002
30/08/2025 22:10:10.9927	1,0601331E+002	7,3169805E-002
30/08/2025 22:10:13.2927	1,0601266E+002	7,3128745E-002
30/08/2025 22:10:15.5927	1,0601522E+002	7,3381327E-002
30/08/2025 22:10:17.8927	1,0601266E+002	7,3371544E-002
30/08/2025 22:10:20.1927	1,0601012E+002	7,3600017E-002
30/08/2025 22:10:22.4927	1,0601076E+002	7,3565289E-002
30/08/2025 22:10:24.7927	1,0600885E+002	7,3758811E-002
30/08/2025 22:10:27.0927	1,0601585E+002	7,3745780E-002
30/08/2025 22:10:29.3927	1,0600885E+002	7,3939301E-002
30/08/2025 22:10:31.6927	1,0601394E+002	7,3921345E-002
30/08/2025 22:10:33.9927	1,0601140E+002	7,4035838E-002
30/08/2025 22:10:36.2927	1,0601140E+002	7,4078649E-002
30/08/2025 22:10:38.5927	1,0601012E+002	7,4189737E-002
30/08/2025 22:10:40.8927	1,0601076E+002	7,4222356E-002
30/08/2025 22:10:43.1927	1,0601522E+002	7,4294366E-002
30/08/2025 22:10:45.4927	1,0600758E+002	7,4385472E-002
30/08/2025 22:10:47.7927	1,0600568E+002	7,4472032E-002
30/08/2025 22:10:50.0927	1,0601012E+002	7,4539386E-002
30/08/2025 22:10:52.3927	1,0601331E+002	7,4557871E-002
30/08/2025 22:10:54.6927	1,0601394E+002	7,4688703E-002
30/08/2025 22:10:56.9927	1,0600503E+002	7,4706502E-002
30/08/2025 22:10:59.2927	1,0601585E+002	7,4823320E-002
30/08/2025 22:11:01.5927	1,0601331E+002	7,4814841E-002
30/08/2025 22:11:03.7931	4,7958097E-003	2,6259048E-002
30/08/2025 22:11:06.0931	7,9776440E-003	2,0554584E-002
30/08/2025 22:11:08.3931	1,1795843E-002	1,6506223E-002
30/08/2025 22:11:10.6931	7,9776440E-003	1,3508888E-002
30/08/2025 22:11:12.9931	1,1795843E-002	1,1068161E-002
30/08/2025 22:11:15.2931	1,0523110E-002	9,1131041E-003
30/08/2025 22:11:17.5931	6,7049102E-003	7,4529471E-003
30/08/2025 22:11:19.8931	3,5230771E-003	6,1109560E-003
30/08/2025 22:11:22.1931	1,1795843E-002	4,9477005E-003
30/08/2025 22:11:24.4931	6,0685435E-003	3,9901501E-003
30/08/2025 22:11:26.7931	1,2432210E-002	3,1634336E-003
30/08/2025 22:11:29.0931	1,6250411E-002	2,4565875E-003
30/08/2025 22:11:31.3931	6,0685435E-003	1,8429485E-003
30/08/2025 22:11:33.6931	4,1594426E-003	1,3170158E-003
30/08/2025 22:11:35.9931	4,1594426E-003	8,4589975E-004
30/08/2025 22:11:38.2931	1,1795843E-002	4,3869161E-004
30/08/2025 22:11:40.5931	2,2503431E-003	7,8736426E-005
30/08/2025 22:11:42.8931	3,4124311E-004	-2,2831227E-004
30/08/2025 22:11:45.1931	4,7958097E-003	-4,9655011E-004
30/08/2025 22:11:47.4931	4,7958097E-003	-7,3602365E-004
30/08/2025 22:11:49.7931	7,9776440E-003	-9,3947491E-004
30/08/2025 22:11:52.0931	1,4977678E-002	-1,0993404E-003
30/08/2025 22:11:54.3931	9,7761012E-004	-1,2428182E-003
30/08/2025 22:11:56.6931	2,8867100E-003	-1,3618101E-003
30/08/2025 22:11:58.9931	1,1795843E-002	-1,4576148E-003
30/08/2025 22:12:01.2931	2,8867100E-003	-1,5330209E-003
30/08/2025 22:12:03.5931	1,6250411E-002	-1,5931472E-003
30/08/2025 22:12:05.8931	7,9776440E-003	-1,6456335E-003
30/08/2025 22:12:08.1931	1,0523110E-002	-1,6742067E-003
30/08/2025 22:12:10.4931	5,4321769E-003	-1,7090448E-003
30/08/2025 22:12:12.7931	8,6140092E-003	-1,7275716E-003
30/08/2025 22:12:15.0931	8,6140092E-003	-1,7433863E-003
30/08/2025 22:12:17.3931	-2,9512335E-004	-1,7554956E-003
30/08/2025 22:12:19.6931	3,5230771E-003	-1,7622188E-003
30/08/2025 22:12:21.9931	9,8867435E-003	-1,7585515E-003
30/08/2025 22:12:24.2931	7,3412773E-003	-1,7624097E-003
30/08/2025 22:12:26.5931	8,6140092E-003	-1,7541586E-003
30/08/2025 22:12:28.8931	1,1795843E-002	-1,7470536E-003
30/08/2025 22:12:31.1931	7,9776440E-003	-1,7424696E-003
30/08/2025 22:12:33.4931	6,0685435E-003	-1,7373507E-003
30/08/2025 22:12:35.7931	9,2503773E-003	-1,7237900E-003
30/08/2025 22:12:38.0931	1,1795843E-002	-1,7097325E-003
30/08/2025 22:12:40.3931	5,4321769E-003	-1,7052630E-003
30/08/2025 22:12:42.6931	7,3412773E-003	-1,6876531E-003
30/08/2025 22:12:44.9931	6,7049102E-003	-1,6760785E-003
30/08/2025 22:12:47.2931	9,8867435E-003	-1,6653826E-003
30/08/2025 22:12:49.5931	2,2503431E-003	-1,6566350E-003
30/08/2025 22:12:51.8931	6,0685435E-003	-1,6423484E-003
30/08/2025 22:12:54.1931	1,0523110E-002	-1,6421955E-003
30/08/2025 22:12:56.4931	6,0685435E-003	-1,6287492E-003
30/08/2025 22:12:58.7931	4,1594426E-003	-1,6168309E-003
30/08/2025 22:13:01.0931	5,4321769E-003	-1,6093056E-003
30/08/2025 22:13:03.2933	-1,0597761E+002	-4,7866318E-002
30/08/2025 22:13:05.5933	-1,0597888E+002	-5,4074027E-002
30/08/2025 22:13:07.8933	-1,0597633E+002	-5,8594875E-002
30/08/2025 22:13:10.1933	-1,0597251E+002	-6,1773662E-002
30/08/2025 22:13:12.4933	-1,0597825E+002	-6,4612351E-002
30/08/2025 22:13:14.7933	-1,0597570E+002	-6,6676311E-002
30/08/2025 22:13:17.0933	-1,0597570E+002	-6,8687603E-002
30/08/2025 22:13:19.3933	-1,0597697E+002	-7,0058241E-002
30/08/2025 22:13:21.6933	-1,0597379E+002	-7,1561515E-002
30/08/2025 22:13:23.9933	-1,0597124E+002	-7,2543435E-002
30/08/2025 22:13:26.2933	-1,0597189E+002	-7,3708758E-002
30/08/2025 22:13:28.5933	-1,0598270E+002	-7,4375793E-002
30/08/2025 22:13:30.8933	-1,0597633E+002	-7,5320087E-002
30/08/2025 22:13:33.1933	-1,0598079E+002	-7,5804040E-002
30/08/2025 22:13:35.4933	-1,0596997E+002	-7,6604053E-002
30/08/2025 22:13:37.7933	-1,0598142E+002	-7,6917410E-002
30/08/2025 22:13:40.0933	-1,0597189E+002	-7,7573486E-002
30/08/2025 22:13:42.3933	-1,0597379E+002	-7,7824727E-002
30/08/2025 22:13:44.6933	-1,0597189E+002	-7,8407347E-002
30/08/2025 22:13:46.9933	-1,0598079E+002	-7,8554340E-002
30/08/2025 22:13:49.2933	-1,0597443E+002	-7,9034127E-002
30/08/2025 22:13:51.5933	-1,0597314E+002	-7,9155602E-002
30/08/2025 22:13:53.8933	-1,0598016E+002	-7,9566702E-002
30/08/2025 22:13:56.1933	-1,0597825E+002	-7,9604253E-002
30/08/2025 22:13:58.4933	-1,0597314E+002	-7,9942249E-002
30/08/2025 22:14:00.7933	-1,0597507E+002	-7,9981931E-002
30/08/2025 22:14:03.0933	-1,0597251E+002	-8,0301136E-002
30/08/2025 22:14:05.3933	-1,0597124E+002	-8,0294713E-002
30/08/2025 22:14:07.6933	-1,0598079E+002	-8,0523297E-002
30/08/2025 22:14:09.9933	-1,0597697E+002	-8,0568030E-002
30/08/2025 22:14:12.2933	-1,0597507E+002	-8,0754749E-002
30/08/2025 22:14:14.5933	-1,0597314E+002	-8,0782026E-002
30/08/2025 22:14:16.8933	-1,0597443E+002	-8,0929294E-002
30/08/2025 22:14:19.1933	-1,0598142E+002	-8,1000790E-002
30/08/2025 22:14:21.4933	-1,0598398E+002	-8,1150427E-002
30/08/2025 22:14:23.7933	-1,0597314E+002	-8,1201158E-002
30/08/2025 22:14:26.0933	-1,0597697E+002	-8,1272669E-002
30/08/2025 22:14:28.3933	-1,0597825E+002	-8,1373282E-002
30/08/2025 22:14:30.6933	-1,0598016E+002	-8,1446014E-002
30/08/2025 22:14:32.9933	-1,0597189E+002	-8,1540518E-002
30/08/2025 22:14:35.2933	-1,0597825E+002	-8,1558511E-002
30/08/2025 22:14:37.5933	-1,0597314E+002	-8,1695646E-002
30/08/2025 22:14:39.8933	-1,0597443E+002	-8,1742249E-002
30/08/2025 22:14:42.1933	-1,0596742E+002	-8,1859410E-002
30/08/2025 22:14:44.4933	-1,0597888E+002	-8,1842646E-002
30/08/2025 22:14:46.7933	-1,0598079E+002	-8,2027487E-002
30/08/2025 22:14:49.0933	-1,0597570E+002	-8,2001433E-002
30/08/2025 22:14:51.3933	-1,0598016E+002	-8,2182005E-002
30/08/2025 22:14:53.6933	-1,0597761E+002	-8,2139529E-002
30/08/2025 22:14:55.9933	-1,0598079E+002	-8,2358681E-002
30/08/2025 22:14:58.2933	-1,0597888E+002	-8,2317002E-002
30/08/2025 22:15:00.5933	-1,0597251E+002	-8,2536884E-002
30/08/2025 22:15:01.5935	-1,0597189E+002	-8,2350038E-002