File: data/phase_2a/Sergey/2/8.3/02 polarisation/SN50_C6aD1E1_mr 0,1MFeCN6_in_1M_KCl_3306mL_symmetric_balanced_4_point_PEIS_10mHz_200kHz_10mV_03_CP_C16.txt
time/s	I/mA	<Ewe/V>
30/08/2025 22:15:01.6957	1,1159762E-001	-4,4125073E-002
30/08/2025 22:15:05.0957	1,2432528E-001	-3,0024756E-002
30/08/2025 22:15:08.4957	4,7959324E-002	-2,3653286E-002
30/08/2025 22:15:11.8957	7,3414646E-002	-1,9449454E-002
30/08/2025 22:15:15.2957	2,8867837E-002	-1,6396500E-002
30/08/2025 22:15:18.6957	1,2432528E-001	-1,4071631E-002
30/08/2025 22:15:22.0957	1,2432528E-001	-1,2298672E-002
30/08/2025 22:15:25.4957	1,1796144E-001	-1,0943120E-002
30/08/2025 22:15:28.8957	1,0523378E-001	-9,8650493E-003
30/08/2025 22:15:32.2957	4,7959324E-002	-9,0026539E-003
30/08/2025 22:15:35.6957	1,6250826E-001	-8,2856091E-003
30/08/2025 22:15:39.0957	7,9778478E-002	-7,7102464E-003
30/08/2025 22:15:42.4957	6,7050815E-002	-7,2398176E-003
30/08/2025 22:15:45.8957	8,6142294E-002	-6,8608769E-003
30/08/2025 22:15:49.2957	1,3068911E-001	-6,5590623E-003
30/08/2025 22:15:52.6957	9,8869957E-002	-6,3147750E-003
30/08/2025 22:15:56.0957	1,6250826E-001	-6,1454363E-003
30/08/2025 22:15:59.4957	3,5231672E-002	-5,9989025E-003
30/08/2025 22:16:02.8957	1,2432528E-001	-5,9055807E-003
30/08/2025 22:16:06.2957	4,7959324E-002	-5,8355988E-003
30/08/2025 22:16:09.6957	1,3068911E-001	-5,7910583E-003
30/08/2025 22:16:13.0957	1,6887209E-001	-5,7640127E-003
30/08/2025 22:16:16.4957	6,7050815E-002	-5,7503371E-003
30/08/2025 22:16:19.8957	1,3705294E-001	-5,7387250E-003
30/08/2025 22:16:23.2957	9,8869957E-002	-5,7352488E-003
30/08/2025 22:16:26.6957	7,9778478E-002	-5,7465942E-003
30/08/2025 22:16:30.0957	1,6250826E-001	-5,7460591E-003
30/08/2025 22:16:33.4957	1,5614443E-001	-5,7609570E-003
30/08/2025 22:16:36.8957	1,6250826E-001	-5,7665338E-003
30/08/2025 22:16:40.2957	1,3705294E-001	-5,7770773E-003
30/08/2025 22:16:43.6957	1,4341676E-001	-5,7986598E-003
30/08/2025 22:16:47.0957	2,2504006E-002	-5,8012577E-003
30/08/2025 22:16:50.4957	4,7959324E-002	-5,8173775E-003
30/08/2025 22:16:53.8957	7,9778478E-002	-5,8282265E-003
30/08/2025 22:16:57.2957	1,7523590E-001	-5,8395714E-003
30/08/2025 22:17:00.6957	7,9778478E-002	-5,8552721E-003
30/08/2025 22:17:04.0955	1,3259380E+002	5,4694746E-002
30/08/2025 22:17:07.4955	1,3256834E+002	6,4218946E-002
30/08/2025 22:17:10.8955	1,3258743E+002	7,0278861E-002
30/08/2025 22:17:14.2955	1,3258743E+002	7,4652225E-002
30/08/2025 22:17:17.6955	1,3255562E+002	7,8016199E-002
30/08/2025 22:17:21.0955	1,3268288E+002	8,0672450E-002
30/08/2025 22:17:24.4955	1,3257471E+002	8,2836650E-002
30/08/2025 22:17:27.8955	1,3260016E+002	8,4682800E-002
30/08/2025 22:17:31.2955	1,3260016E+002	8,6167082E-002
30/08/2025 22:17:34.6955	1,3258107E+002	8,7274984E-002
30/08/2025 22:17:38.0955	1,3254926E+002	8,8206984E-002
30/08/2025 22:17:41.4955	1,3257471E+002	8,9027129E-002
30/08/2025 22:17:44.8955	1,3260016E+002	8,9763045E-002
30/08/2025 22:17:48.2955	1,3257471E+002	9,0481460E-002
30/08/2025 22:17:51.6955	1,3261925E+002	9,1159813E-002
30/08/2025 22:17:55.0955	1,3257471E+002	9,1689914E-002
30/08/2025 22:17:58.4955	1,3256197E+002	9,2037871E-002
30/08/2025 22:18:01.8955	1,3262563E+002	9,2292242E-002
30/08/2025 22:18:05.2955	1,3265106E+002	9,2530116E-002
30/08/2025 22:18:08.6955	1,3256834E+002	9,2781156E-002
30/08/2025 22:18:12.0955	1,3255562E+002	9,3067579E-002
30/08/2025 22:18:15.4955	1,3256197E+002	9,3370423E-002
30/08/2025 22:18:18.8955	1,3260652E+002	9,3567535E-002
30/08/2025 22:18:22.2955	1,3253653E+002	9,3652718E-002
30/08/2025 22:18:25.6955	1,3256834E+002	9,3731910E-002
30/08/2025 22:18:29.0955	1,3260016E+002	9,3837224E-002
30/08/2025 22:18:32.4955	1,3260652E+002	9,4021231E-002
30/08/2025 22:18:35.8955	1,3260016E+002	9,4270065E-002
30/08/2025 22:18:39.2955	1,3254289E+002	9,4546705E-002
30/08/2025 22:18:42.6955	1,3263199E+002	9,4692439E-002
30/08/2025 22:18:46.0955	1,3257471E+002	9,4734266E-002
30/08/2025 22:18:49.4955	1,3262563E+002	9,4786830E-002
30/08/2025 22:18:52.8955	1,3256834E+002	9,4901733E-002
30/08/2025 22:18:56.2955	1,3256197E+002	9,5068783E-002
30/08/2025 22:18:59.6955	1,3253015E+002	9,5326938E-002
30/08/2025 22:19:02.9957	1,6887209E-001	3,8227189E-002
30/08/2025 22:19:06.3957	1,1796144E-001	2,6306570E-002
30/08/2025 22:19:09.7957	-2,2042796E-002	1,9555854E-002
30/08/2025 22:19:13.1957	6,7050815E-002	1,4874870E-002
30/08/2025 22:19:16.5957	1,1796144E-001	1,1393354E-002
30/08/2025 22:19:19.9957	1,5614443E-001	8,7358057E-003
30/08/2025 22:19:23.3957	7,9778478E-002	6,7035854E-003
30/08/2025 22:19:26.7957	1,0523378E-001	5,1052356E-003
30/08/2025 22:19:30.1957	7,3414646E-002	3,8265029E-003
30/08/2025 22:19:33.5957	7,3414646E-002	2,8027908E-003
30/08/2025 22:19:36.9957	1,1796144E-001	1,9459348E-003
30/08/2025 22:19:40.3957	3,5231672E-002	1,2466904E-003
30/08/2025 22:19:43.7957	7,3414646E-002	6,6811865E-004
30/08/2025 22:19:47.1957	6,0686987E-002	2,0166286E-004
30/08/2025 22:19:50.5957	8,6142294E-002	-1,6203590E-004
30/08/2025 22:19:53.9957	1,2432528E-001	-4,4757820E-004
30/08/2025 22:19:57.3957	1,6887209E-001	-6,6936528E-004
30/08/2025 22:20:00.7957	7,9778478E-002	-8,3159911E-004
30/08/2025 22:20:04.1957	9,2506140E-002	-9,5639739E-004
30/08/2025 22:20:07.5957	6,7050815E-002	-1,0266465E-003
30/08/2025 22:20:10.9957	1,1796144E-001	-1,0787508E-003
30/08/2025 22:20:14.3957	1,5614443E-001	-1,1139327E-003
30/08/2025 22:20:17.7957	1,3068911E-001	-1,1332617E-003
30/08/2025 22:20:21.1957	7,9778478E-002	-1,1404431E-003
30/08/2025 22:20:24.5957	1,5614443E-001	-1,1373872E-003
30/08/2025 22:20:27.9957	6,7050815E-002	-1,1345987E-003
30/08/2025 22:20:31.3957	1,3068911E-001	-1,1193953E-003
30/08/2025 22:20:34.7957	1,3705294E-001	-1,1040772E-003
30/08/2025 22:20:38.1957	5,4323155E-002	-1,0849391E-003
30/08/2025 22:20:41.5957	1,5614443E-001	-1,0724096E-003
30/08/2025 22:20:44.9957	2,8867837E-002	-1,0547996E-003
30/08/2025 22:20:48.3957	1,3705294E-001	-1,0287092E-003
30/08/2025 22:20:51.7957	7,9778478E-002	-1,0167146E-003
30/08/2025 22:20:55.1957	8,6142294E-002	-9,9742378E-004
30/08/2025 22:20:58.5957	5,4323155E-002	-9,7931712E-004
30/08/2025 22:21:01.8959	-1,3237061E+002	-4,8054565E-002
30/08/2025 22:21:05.2959	-1,3240242E+002	-6,4806253E-002
30/08/2025 22:21:08.6959	-1,3230696E+002	-7,2978839E-002
30/08/2025 22:21:12.0959	-1,3244696E+002	-7,8564197E-002
30/08/2025 22:21:15.4959	-1,3242787E+002	-8,2672529E-002
30/08/2025 22:21:18.8959	-1,3242787E+002	-8,5811429E-002
30/08/2025 22:21:22.2959	-1,3242787E+002	-8,8303231E-002
30/08/2025 22:21:25.6959	-1,3240878E+002	-9,0309165E-002
30/08/2025 22:21:29.0959	-1,3232603E+002	-9,2058830E-002
30/08/2025 22:21:32.4959	-1,3238968E+002	-9,3559846E-002
30/08/2025 22:21:35.8959	-1,3240242E+002	-9,4737887E-002
30/08/2025 22:21:39.2959	-1,3236423E+002	-9,5633626E-002
30/08/2025 22:21:42.6959	-1,3242149E+002	-9,6390739E-002
30/08/2025 22:21:46.0959	-1,3235785E+002	-9,7084299E-002
30/08/2025 22:21:49.4959	-1,3234514E+002	-9,7698815E-002
30/08/2025 22:21:52.8959	-1,3237061E+002	-9,8335490E-002
30/08/2025 22:21:56.2959	-1,3237061E+002	-9,8927125E-002
30/08/2025 22:21:59.6959	-1,3237695E+002	-9,9307127E-002
30/08/2025 22:22:03.0959	-1,3240242E+002	-9,9525906E-002
30/08/2025 22:22:06.4959	-1,3244060E+002	-9,9721558E-002
30/08/2025 22:22:09.8959	-1,3235785E+002	-9,9911034E-002
30/08/2025 22:22:13.2959	-1,3236423E+002	-1,0015165E-001
30/08/2025 22:22:16.6959	-1,3240242E+002	-1,0049996E-001
30/08/2025 22:22:20.0959	-1,3238332E+002	-1,0079138E-001
30/08/2025 22:22:23.4959	-1,3237061E+002	-1,0094311E-001
30/08/2025 22:22:26.8959	-1,3240878E+002	-1,0099483E-001
30/08/2025 22:22:30.2959	-1,3239604E+002	-1,0109018E-001
30/08/2025 22:22:33.6959	-1,3239604E+002	-1,0121410E-001
30/08/2025 22:22:37.0959	-1,3234514E+002	-1,0139463E-001
30/08/2025 22:22:40.4959	-1,3240242E+002	-1,0168537E-001
30/08/2025 22:22:43.8959	-1,3239604E+002	-1,0193317E-001
30/08/2025 22:22:47.2959	-1,3235785E+002	-1,0206858E-001
30/08/2025 22:22:50.6959	-1,3239604E+002	-1,0212913E-001
30/08/2025 22:22:54.0959	-1,3237061E+002	-1,0221198E-001
30/08/2025 22:22:57.4959	-1,3238332E+002	-1,0230829E-001
30/08/2025 22:23:00.8959	-1,3239604E+002	-1,0249749E-001
30/08/2025 22:23:04.1961	1,5904185E+002	3,4128096E-002
30/08/2025 22:23:07.5961	1,5908005E+002	5,4320008E-002
30/08/2025 22:23:10.9961	1,5908005E+002	6,7242406E-002
30/08/2025 22:23:14.3961	1,5909914E+002	7,6616526E-002
30/08/2025 22:23:17.7961	1,5901642E+002	8,3697669E-002
30/08/2025 22:23:21.1961	1,5908005E+002	8,9237079E-002
30/08/2025 22:23:24.5961	1,5901006E+002	9,3646035E-002
30/08/2025 22:23:27.9961	1,5908643E+002	9,7211093E-002
30/08/2025 22:23:31.3961	1,5911188E+002	1,0025171E-001
30/08/2025 22:23:34.7961	1,5906734E+002	1,0287243E-001
30/08/2025 22:23:38.1961	1,5909277E+002	1,0498311E-001
30/08/2025 22:23:41.5961	1,5913097E+002	1,0661878E-001
30/08/2025 22:23:44.9961	1,5906096E+002	1,0802717E-001
30/08/2025 22:23:48.3961	1,5908005E+002	1,0925693E-001
30/08/2025 22:23:51.7961	1,5909277E+002	1,1032476E-001
30/08/2025 22:23:55.1961	1,5904185E+002	1,1134404E-001
30/08/2025 22:23:58.5961	1,5905460E+002	1,1222962E-001
30/08/2025 22:24:01.9961	1,5914371E+002	1,1282776E-001
30/08/2025 22:24:05.3961	1,5905460E+002	1,1321785E-001
30/08/2025 22:24:08.7961	1,5908005E+002	1,1357494E-001
30/08/2025 22:24:12.1961	1,5903551E+002	1,1389834E-001
30/08/2025 22:24:15.5961	1,5904185E+002	1,1427587E-001
30/08/2025 22:24:18.9961	1,5906734E+002	1,1468850E-001
30/08/2025 22:24:22.3961	1,5904185E+002	1,1508902E-001
30/08/2025 22:24:25.7961	1,5904185E+002	1,1532510E-001
30/08/2025 22:24:29.1961	1,5908005E+002	1,1543385E-001
30/08/2025 22:24:32.5961	1,5903551E+002	1,1554688E-001
30/08/2025 22:24:35.9961	1,5912460E+002	1,1569033E-001
30/08/2025 22:24:39.3961	1,5906734E+002	1,1590046E-001
30/08/2025 22:24:42.7961	1,5915642E+002	1,1620349E-001
30/08/2025 22:24:46.1961	1,5910551E+002	1,1647219E-001
30/08/2025 22:24:49.5961	1,5906734E+002	1,1657166E-001
30/08/2025 22:24:52.9961	1,5909277E+002	1,1663660E-001
30/08/2025 22:24:56.3961	1,5906734E+002	1,1672588E-001
30/08/2025 22:24:59.7961	1,5904185E+002	1,1686423E-001
30/08/2025 22:25:03.0965	1,2432528E-001	4,7136758E-002
30/08/2025 22:25:06.4965	8,6142294E-002	3,2742713E-002
30/08/2025 22:25:09.8965	7,9778478E-002	2,4646567E-002
30/08/2025 22:25:13.2965	1,1159762E-001	1,9063041E-002
30/08/2025 22:25:16.6965	4,7959324E-002	1,4923650E-002
30/08/2025 22:25:20.0965	5,4323155E-002	1,1753004E-002
30/08/2025 22:25:23.4965	8,6142294E-002	9,2832074E-003
30/08/2025 22:25:26.8965	8,6142294E-002	7,3548122E-003
30/08/2025 22:25:30.2965	7,9778478E-002	5,8023031E-003
30/08/2025 22:25:33.6965	5,4323155E-002	4,5605474E-003
30/08/2025 22:25:37.0965	8,6142294E-002	3,5351540E-003
30/08/2025 22:25:40.4965	7,3414646E-002	2,6818889E-003
30/08/2025 22:25:43.8965	1,0523378E-001	1,9851276E-003
30/08/2025 22:25:47.2965	1,0523378E-001	1,4169844E-003
30/08/2025 22:25:50.6965	1,0523378E-001	9,5652591E-004
30/08/2025 22:25:54.0965	4,7959324E-002	6,0405786E-004
30/08/2025 22:25:57.4965	9,8869957E-002	3,3673676E-004
30/08/2025 22:26:00.8965	6,7050815E-002	1,4455439E-004
30/08/2025 22:26:04.2965	5,4323155E-002	-7,1882141E-007
30/08/2025 22:26:07.6965	7,9778478E-002	-1,0301745E-004
30/08/2025 22:26:11.0965	1,0523378E-001	-1,6539746E-004
30/08/2025 22:26:14.4965	3,5231672E-002	-2,1536258E-004
30/08/2025 22:26:17.8965	1,3705294E-001	-2,3667800E-004
30/08/2025 22:26:21.2965	2,8867837E-002	-2,4813789E-004
30/08/2025 22:26:24.6965	7,9778478E-002	-2,4462352E-004
30/08/2025 22:26:28.0965	6,7050815E-002	-2,3660158E-004
30/08/2025 22:26:31.4965	5,4323155E-002	-2,2292612E-004
30/08/2025 22:26:34.8965	6,7050815E-002	-2,1047304E-004
30/08/2025 22:26:38.2965	7,9778478E-002	-1,8247271E-004
30/08/2025 22:26:41.6965	1,2432528E-001	-1,6085171E-004
30/08/2025 22:26:45.0965	7,9778478E-002	-1,3839031E-004
30/08/2025 22:26:48.4965	1,3068911E-001	-1,1287296E-004
30/08/2025 22:26:51.8965	5,4323155E-002	-9,3238348E-005
30/08/2025 22:26:55.2965	1,4341676E-001	-6,4168424E-005
30/08/2025 22:26:58.6965	6,7050815E-002	-4,5336001E-005
30/08/2025 22:27:01.9967	-1,5887593E+002	-5,7538234E-002
30/08/2025 22:27:05.3967	-1,5888231E+002	-7,6734208E-002
30/08/2025 22:27:08.7967	-1,5897139E+002	-8,6405814E-002
30/08/2025 22:27:12.1967	-1,5888231E+002	-9,3250774E-002
30/08/2025 22:27:15.5967	-1,5892049E+002	-9,8450623E-002
30/08/2025 22:27:18.9967	-1,5886320E+002	-1,0240196E-001
30/08/2025 22:27:22.3967	-1,5883139E+002	-1,0542996E-001
30/08/2025 22:27:25.7967	-1,5889502E+002	-1,0786591E-001
30/08/2025 22:27:29.1967	-1,5886320E+002	-1,0989840E-001
30/08/2025 22:27:32.5967	-1,5895229E+002	-1,1166895E-001
30/08/2025 22:27:35.9967	-1,5889502E+002	-1,1326589E-001
30/08/2025 22:27:39.3967	-1,5893321E+002	-1,1465663E-001
30/08/2025 22:27:42.7967	-1,5893321E+002	-1,1575063E-001
30/08/2025 22:27:46.1967	-1,5890776E+002	-1,1657643E-001
30/08/2025 22:27:49.5967	-1,5883139E+002	-1,1726222E-001
30/08/2025 22:27:52.9967	-1,5889502E+002	-1,1788090E-001
30/08/2025 22:27:56.3967	-1,5892049E+002	-1,1847395E-001
30/08/2025 22:27:59.7967	-1,5890138E+002	-1,1909726E-001
30/08/2025 22:28:03.1967	-1,5884413E+002	-1,1961120E-001
30/08/2025 22:28:06.5967	-1,5888866E+002	-1,1995003E-001
30/08/2025 22:28:09.9967	-1,5889502E+002	-1,2012693E-001
30/08/2025 22:28:13.3967	-1,5887593E+002	-1,2034611E-001
30/08/2025 22:28:16.7967	-1,5889502E+002	-1,2059082E-001
30/08/2025 22:28:20.1967	-1,5885048E+002	-1,2085845E-001
30/08/2025 22:28:23.5967	-1,5887593E+002	-1,2125027E-001
30/08/2025 22:28:26.9967	-1,5894594E+002	-1,2160876E-001
30/08/2025 22:28:30.3967	-1,5890138E+002	-1,2171840E-001
30/08/2025 22:28:33.7967	-1,5886320E+002	-1,2176016E-001
30/08/2025 22:28:37.1967	-1,5888866E+002	-1,2186506E-001
30/08/2025 22:28:40.5967	-1,5892683E+002	-1,2198068E-001
30/08/2025 22:28:43.9967	-1,5885048E+002	-1,2221982E-001
30/08/2025 22:28:47.3967	-1,5885684E+002	-1,2258901E-001
30/08/2025 22:28:50.7967	-1,5893958E+002	-1,2285965E-001
30/08/2025 22:28:54.1967	-1,5885684E+002	-1,2296008E-001
30/08/2025 22:28:57.5967	-1,5895866E+002	-1,2302689E-001
30/08/2025 22:29:00.9967	-1,5887593E+002	-1,2313676E-001
30/08/2025 22:29:04.2969	1,8559813E+002	4,0592279E-002
30/08/2025 22:29:07.6969	1,8557903E+002	6,3888289E-002
30/08/2025 22:29:11.0969	1,8557903E+002	7,8882180E-002
30/08/2025 22:29:14.4969	1,8562994E+002	9,0003550E-002
30/08/2025 22:29:17.8969	1,8568088E+002	9,8656110E-002
30/08/2025 22:29:21.2969	1,8565540E+002	1,0539747E-001
30/08/2025 22:29:24.6969	1,8562360E+002	1,1063121E-001
30/08/2025 22:29:28.0969	1,8559177E+002	1,1483132E-001
30/08/2025 22:29:31.4969	1,8565540E+002	1,1833633E-001
30/08/2025 22:29:34.8969	1,8564905E+002	1,2132913E-001
30/08/2025 22:29:38.2969	1,8563631E+002	1,2400940E-001
30/08/2025 22:29:41.6969	1,8560449E+002	1,2637201E-001
30/08/2025 22:29:45.0969	1,8564267E+002	1,2828360E-001
30/08/2025 22:29:48.4969	1,8562360E+002	1,2976681E-001
30/08/2025 22:29:51.8969	1,8565540E+002	1,3103706E-001
30/08/2025 22:29:55.2969	1,8554723E+002	1,3216579E-001
30/08/2025 22:29:58.6969	1,8566812E+002	1,3315126E-001
30/08/2025 22:30:02.0969	1,8557903E+002	1,3414125E-001
30/08/2025 22:30:05.4969	1,8562360E+002	1,3501987E-001
30/08/2025 22:30:08.8969	1,8555357E+002	1,3558985E-001
30/08/2025 22:30:12.2969	1,8555995E+002	1,3595726E-001
30/08/2025 22:30:15.6969	1,8557268E+002	1,3626243E-001
30/08/2025 22:30:19.0969	1,8573175E+002	1,3656987E-001
30/08/2025 22:30:22.4969	1,8559813E+002	1,3693567E-001
30/08/2025 22:30:25.8969	1,8559177E+002	1,3739035E-001
30/08/2025 22:30:29.2969	1,8562360E+002	1,3778733E-001
30/08/2025 22:30:32.6969	1,8555995E+002	1,3797511E-001
30/08/2025 22:30:36.0969	1,8559813E+002	1,3805579E-001
30/08/2025 22:30:39.4969	1,8568088E+002	1,3816656E-001
30/08/2025 22:30:42.8969	1,8558540E+002	1,3834095E-001
30/08/2025 22:30:46.2969	1,8566812E+002	1,3862523E-001
30/08/2025 22:30:49.6969	1,8565540E+002	1,3899007E-001
30/08/2025 22:30:53.0969	1,8559813E+002	1,3936028E-001
30/08/2025 22:30:56.4969	1,8566177E+002	1,3952957E-001
30/08/2025 22:30:59.8969	1,8563631E+002	1,3961670E-001
30/08/2025 22:31:03.1973	1,3068911E-001	5,6029666E-002
30/08/2025 22:31:06.5973	6,7050815E-002	3,9278328E-002
30/08/2025 22:31:09.9973	1,8159975E-001	2,9789232E-002
30/08/2025 22:31:13.3973	9,2506140E-002	2,3257665E-002
30/08/2025 22:31:16.7973	1,3068911E-001	1,8435381E-002
30/08/2025 22:31:20.1973	1,4341676E-001	1,4751217E-002
30/08/2025 22:31:23.5973	4,1595493E-002	1,1898888E-002
30/08/2025 22:31:26.9973	1,1159762E-001	9,6477456E-003
30/08/2025 22:31:30.3973	9,8869957E-002	7,8297481E-003
30/08/2025 22:31:33.7973	6,7050815E-002	6,3551660E-003
30/08/2025 22:31:37.1973	8,6142294E-002	5,1400736E-003
30/08/2025 22:31:40.5973	1,1796144E-001	4,1343155E-003
30/08/2025 22:31:43.9973	1,1796144E-001	3,3254765E-003
30/08/2025 22:31:47.3973	3,5231672E-002	2,6436895E-003
30/08/2025 22:31:50.7973	2,0069122E-001	2,1123323E-003
30/08/2025 22:31:54.1973	1,0523378E-001	1,6940463E-003
30/08/2025 22:31:57.5973	4,1595493E-002	1,3686236E-003
30/08/2025 22:32:00.9973	8,6142294E-002	1,1297995E-003
30/08/2025 22:32:04.3973	9,2506140E-002	9,5942908E-004
30/08/2025 22:32:07.7973	6,7050815E-002	8,3898561E-004
30/08/2025 22:32:11.1973	6,0686987E-002	7,5525203E-004
30/08/2025 22:32:14.5973	9,8869957E-002	7,0135231E-004
30/08/2025 22:32:17.9973	8,6142294E-002	6,7239703E-004
30/08/2025 22:32:21.3973	6,7050815E-002	6,5929454E-004
30/08/2025 22:32:24.7973	1,0523378E-001	6,5879792E-004
30/08/2025 22:32:28.1973	1,1159762E-001	6,6995219E-004
30/08/2025 22:32:31.5973	5,4323155E-002	6,8664545E-004
30/08/2025 22:32:34.9973	6,7050815E-002	7,0578349E-004
30/08/2025 22:32:38.3973	5,4323155E-002	7,2801567E-004
30/08/2025 22:32:41.7973	1,6250826E-001	7,5544300E-004
30/08/2025 22:32:45.1973	1,1796144E-001	7,7924138E-004
30/08/2025 22:32:48.5973	6,7050815E-002	8,1281882E-004
30/08/2025 22:32:51.9973	9,8869957E-002	8,3359948E-004
30/08/2025 22:32:55.3973	2,8867837E-002	8,5392164E-004
30/08/2025 22:32:58.7973	9,8869957E-002	8,7947724E-004
30/08/2025 22:33:02.0975	-1,8538129E+002	-6,7624964E-002
30/08/2025 22:33:05.4975	-1,8536855E+002	-8,8893533E-002
30/08/2025 22:33:08.8975	-1,8531128E+002	-1,0008965E-001
30/08/2025 22:33:12.2975	-1,8530492E+002	-1,0799522E-001
30/08/2025 22:33:15.6975	-1,8534309E+002	-1,1404283E-001
30/08/2025 22:33:19.0975	-1,8536855E+002	-1,1894388E-001
30/08/2025 22:33:22.4975	-1,8539400E+002	-1,2289667E-001
30/08/2025 22:33:25.8975	-1,8534946E+002	-1,2597190E-001
30/08/2025 22:33:29.2975	-1,8534309E+002	-1,2836491E-001
30/08/2025 22:33:32.6975	-1,8533673E+002	-1,3031833E-001
30/08/2025 22:33:36.0975	-1,8533673E+002	-1,3202856E-001
30/08/2025 22:33:39.4975	-1,8541309E+002	-1,3358036E-001
30/08/2025 22:33:42.8975	-1,8541309E+002	-1,3505504E-001
30/08/2025 22:33:46.2975	-1,8529855E+002	-1,3634382E-001
30/08/2025 22:33:49.6975	-1,8532401E+002	-1,3730687E-001
30/08/2025 22:33:53.0975	-1,8541948E+002	-1,3797143E-001
30/08/2025 22:33:56.4975	-1,8545128E+002	-1,3857868E-001
30/08/2025 22:33:59.8975	-1,8533037E+002	-1,3916795E-001
30/08/2025 22:34:03.2975	-1,8531128E+002	-1,3973056E-001
30/08/2025 22:34:06.6975	-1,8534946E+002	-1,4037289E-001
30/08/2025 22:34:10.0975	-1,8539400E+002	-1,4095123E-001
30/08/2025 22:34:13.4975	-1,8536220E+002	-1,4131975E-001
30/08/2025 22:34:16.8975	-1,8537491E+002	-1,4153431E-001
30/08/2025 22:34:20.2975	-1,8535582E+002	-1,4171958E-001
30/08/2025 22:34:23.6975	-1,8529855E+002	-1,4195955E-001
30/08/2025 22:34:27.0975	-1,8534309E+002	-1,4229979E-001
30/08/2025 22:34:30.4975	-1,8536220E+002	-1,4274128E-001
30/08/2025 22:34:33.8975	-1,8541309E+002	-1,4310531E-001
30/08/2025 22:34:37.2975	-1,8533673E+002	-1,4329268E-001
30/08/2025 22:34:40.6975	-1,8534946E+002	-1,4337607E-001
30/08/2025 22:34:44.0975	-1,8536855E+002	-1,4354366E-001
30/08/2025 22:34:47.4975	-1,8537491E+002	-1,4375348E-001
30/08/2025 22:34:50.8975	-1,8535582E+002	-1,4406848E-001
30/08/2025 22:34:54.2975	-1,8530492E+002	-1,4451829E-001
30/08/2025 22:34:57.6975	-1,8535582E+002	-1,4488362E-001
30/08/2025 22:35:01.0975	-1,8544493E+002	-1,4499798E-001
30/08/2025 22:35:04.3977	2,1208440E+002	4,7508057E-002
30/08/2025 22:35:07.7977	2,1209074E+002	7,3580839E-002
30/08/2025 22:35:11.1977	2,1215439E+002	9,0602972E-002
30/08/2025 22:35:14.5977	2,1214166E+002	1,0327422E-001
30/08/2025 22:35:17.9977	2,1210985E+002	1,1320162E-001
30/08/2025 22:35:21.3977	2,1209074E+002	1,2122243E-001
30/08/2025 22:35:24.7977	2,1214166E+002	1,2772638E-001
30/08/2025 22:35:28.1977	2,1212894E+002	1,3283196E-001
30/08/2025 22:35:31.5977	2,1211621E+002	1,3691537E-001
30/08/2025 22:35:34.9977	2,1211621E+002	1,4041951E-001
30/08/2025 22:35:38.3977	2,1214803E+002	1,4348201E-001
30/08/2025 22:35:41.7977	2,1214803E+002	1,4620076E-001
30/08/2025 22:35:45.1977	2,1218620E+002	1,4870898E-001
30/08/2025 22:35:48.5977	2,1209074E+002	1,5089498E-001
30/08/2025 22:35:51.9977	2,1205894E+002	1,5260121E-001
30/08/2025 22:35:55.3977	2,1217349E+002	1,5392163E-001
30/08/2025 22:35:58.7977	2,1210985E+002	1,5503362E-001
30/08/2025 22:36:02.1977	2,1210985E+002	1,5601507E-001
30/08/2025 22:36:05.5977	2,1209074E+002	1,5695885E-001
30/08/2025 22:36:08.9977	2,1215439E+002	1,5790543E-001
30/08/2025 22:36:12.3977	2,1218620E+002	1,5870018E-001
30/08/2025 22:36:15.7977	2,1209712E+002	1,5918691E-001
30/08/2025 22:36:19.1977	2,1210985E+002	1,5951875E-001
30/08/2025 22:36:22.5977	2,1209712E+002	1,5988708E-001
30/08/2025 22:36:25.9977	2,1209074E+002	1,6025302E-001
30/08/2025 22:36:29.3977	2,1209074E+002	1,6067769E-001
30/08/2025 22:36:32.7977	2,1214166E+002	1,6124545E-001
30/08/2025 22:36:36.1977	2,1217349E+002	1,6170508E-001
30/08/2025 22:36:39.5977	2,1212894E+002	1,6187544E-001
30/08/2025 22:36:42.9977	2,1210985E+002	1,6198955E-001
30/08/2025 22:36:46.3977	2,1210985E+002	1,6214634E-001
30/08/2025 22:36:49.7977	2,1211621E+002	1,6234377E-001
30/08/2025 22:36:53.1977	2,1215439E+002	1,6270067E-001
30/08/2025 22:36:56.5977	2,1208440E+002	1,6320100E-001
30/08/2025 22:36:59.9977	2,1208440E+002	1,6354395E-001
30/08/2025 22:37:03.2981	1,1159762E-001	6,4822994E-002
30/08/2025 22:37:06.6981	7,3414646E-002	4,5806415E-002
30/08/2025 22:37:10.0981	7,9778478E-002	3,5004701E-002
30/08/2025 22:37:13.4981	9,8869957E-002	2,7540801E-002
30/08/2025 22:37:16.8981	1,1159762E-001	2,2015223E-002
30/08/2025 22:37:20.2981	9,2506140E-002	1,7775252E-002
30/08/2025 22:37:23.6981	1,1159762E-001	1,4507809E-002
30/08/2025 22:37:27.0981	9,8869957E-002	1,1940449E-002
30/08/2025 22:37:30.4981	1,1796144E-001	9,8732766E-003
30/08/2025 22:37:33.8981	9,8869957E-002	8,1798108E-003
30/08/2025 22:37:37.2981	1,4978060E-001	6,7785708E-003
30/08/2025 22:37:40.6981	6,7050815E-002	5,6141317E-003
30/08/2025 22:37:44.0981	1,0523378E-001	4,6550152E-003
30/08/2025 22:37:47.4981	6,7050815E-002	3,8782635E-003
30/08/2025 22:37:50.8981	9,2506140E-002	3,2613773E-003
30/08/2025 22:37:54.2981	1,3705294E-001	2,7838056E-003
30/08/2025 22:37:57.6981	1,0523378E-001	2,4083033E-003
30/08/2025 22:38:01.0981	4,7959324E-002	2,1216911E-003
30/08/2025 22:38:04.4981	1,3705294E-001	1,9215634E-003
30/08/2025 22:38:07.8981	1,4978060E-001	1,7715534E-003
30/08/2025 22:38:11.2981	1,3068911E-001	1,6723108E-003
30/08/2025 22:38:14.6981	1,1159762E-001	1,6169212E-003
30/08/2025 22:38:18.0981	4,1595493E-002	1,5738702E-003
30/08/2025 22:38:21.4981	1,3068911E-001	1,5591251E-003
30/08/2025 22:38:24.8981	1,6250826E-001	1,5622958E-003
30/08/2025 22:38:28.2981	4,7959324E-002	1,5664212E-003
30/08/2025 22:38:31.6981	1,3068911E-001	1,5838785E-003
30/08/2025 22:38:35.0981	7,3414646E-002	1,6082500E-003
30/08/2025 22:38:38.4981	1,1159762E-001	1,6373963E-003
30/08/2025 22:38:41.8981	9,8869957E-002	1,6692547E-003
30/08/2025 22:38:45.2981	7,9778478E-002	1,6960709E-003
30/08/2025 22:38:48.6981	1,7523590E-001	1,7240330E-003
30/08/2025 22:38:52.0981	5,4323155E-002	1,7558151E-003
30/08/2025 22:38:55.4981	9,8869957E-002	1,7838918E-003
30/08/2025 22:38:58.8981	6,0686987E-002	1,8142223E-003
30/08/2025 22:39:02.1983	-2,1184209E+002	-7,7349871E-002
30/08/2025 22:39:05.5983	-2,1183574E+002	-1,0118881E-001
30/08/2025 22:39:08.9983	-2,1181664E+002	-1,1408520E-001
30/08/2025 22:39:12.3983	-2,1180389E+002	-1,2316625E-001
30/08/2025 22:39:15.7983	-2,1182300E+002	-1,3009918E-001
30/08/2025 22:39:19.1983	-2,1182300E+002	-1,3562112E-001
30/08/2025 22:39:22.5983	-2,1174664E+002	-1,4012872E-001
30/08/2025 22:39:25.9983	-2,1181664E+002	-1,4393997E-001
30/08/2025 22:39:29.3983	-2,1179117E+002	-1,4713502E-001
30/08/2025 22:39:32.7983	-2,1181027E+002	-1,4965379E-001
30/08/2025 22:39:36.1983	-2,1187392E+002	-1,5167204E-001
30/08/2025 22:39:39.5983	-2,1178482E+002	-1,5344565E-001
30/08/2025 22:39:42.9983	-2,1186118E+002	-1,5500951E-001
30/08/2025 22:39:46.3983	-2,1179755E+002	-1,5644981E-001
30/08/2025 22:39:49.7983	-2,1185481E+002	-1,5786298E-001
30/08/2025 22:39:53.1983	-2,1181027E+002	-1,5906061E-001
30/08/2025 22:39:56.5983	-2,1185481E+002	-1,5992185E-001
30/08/2025 22:39:59.9983	-2,1189299E+002	-1,6053587E-001
30/08/2025 22:40:03.3983	-2,1181664E+002	-1,6104901E-001
30/08/2025 22:40:06.7983	-2,1184209E+002	-1,6158628E-001
30/08/2025 22:40:10.1983	-2,1182935E+002	-1,6219138E-001
30/08/2025 22:40:13.5983	-2,1184845E+002	-1,6286854E-001
30/08/2025 22:40:16.9983	-2,1177846E+002	-1,6346458E-001
30/08/2025 22:40:20.3983	-2,1181027E+002	-1,6381834E-001
30/08/2025 22:40:23.7983	-2,1179117E+002	-1,6400452E-001
30/08/2025 22:40:27.1983	-2,1181027E+002	-1,6423918E-001
30/08/2025 22:40:30.5983	-2,1184209E+002	-1,6454184E-001
30/08/2025 22:40:33.9983	-2,1184845E+002	-1,6492936E-001
30/08/2025 22:40:37.3983	-2,1180389E+002	-1,6545089E-001
30/08/2025 22:40:40.7983	-2,1186118E+002	-1,6591538E-001
30/08/2025 22:40:44.1983	-2,1179755E+002	-1,6616854E-001
30/08/2025 22:40:47.5983	-2,1182935E+002	-1,6632305E-001
30/08/2025 22:40:50.9983	-2,1181027E+002	-1,6650343E-001
30/08/2025 22:40:54.3983	-2,1186754E+002	-1,6674992E-001
30/08/2025 22:40:57.7983	-2,1182935E+002	-1,6712604E-001
30/08/2025 22:41:01.1983	-2,1179117E+002	-1,6763231E-001
30/08/2025 22:41:04.4985	2,3859610E+002	5,4407675E-002
30/08/2025 22:41:07.8985	2,3859610E+002	8,3597511E-002
30/08/2025 22:41:11.2985	2,3857063E+002	1,0264014E-001
30/08/2025 22:41:14.6985	2,3861520E+002	1,1689655E-001
30/08/2025 22:41:18.0985	2,3855792E+002	1,2816781E-001
30/08/2025 22:41:21.4985	2,3866609E+002	1,3720405E-001
30/08/2025 22:41:24.8985	2,3853246E+002	1,4457020E-001
30/08/2025 22:41:28.2985	2,3858337E+002	1,5075286E-001
30/08/2025 22:41:31.6985	2,3855792E+002	1,5594526E-001
30/08/2025 22:41:35.0985	2,3860883E+002	1,6023022E-001
30/08/2025 22:41:38.4985	2,3860246E+002	1,6375972E-001
30/08/2025 22:41:41.8985	2,3857063E+002	1,6680078E-001
30/08/2025 22:41:45.2985	2,3857063E+002	1,6955805E-001
30/08/2025 22:41:48.6985	2,3861520E+002	1,7205636E-001
30/08/2025 22:41:52.0985	2,3860246E+002	1,7436810E-001
30/08/2025 22:41:55.4985	2,3862791E+002	1,7641561E-001
30/08/2025 22:41:58.8985	2,3856429E+002	1,7796406E-001
30/08/2025 22:42:02.2985	2,3858337E+002	1,7909600E-001
30/08/2025 22:42:05.6985	2,3860883E+002	1,8011834E-001
30/08/2025 22:42:09.0985	2,3864700E+002	1,8108356E-001
30/08/2025 22:42:12.4985	2,3852611E+002	1,8200195E-001
30/08/2025 22:42:15.8985	2,3858337E+002	1,8296763E-001
30/08/2025 22:42:19.2985	2,3857701E+002	1,8385127E-001
30/08/2025 22:42:22.6985	2,3860883E+002	1,8442275E-001
30/08/2025 22:42:26.0985	2,3862155E+002	1,8478186E-001
30/08/2025 22:42:29.4985	2,3858974E+002	1,8513662E-001
30/08/2025 22:42:32.8985	2,3857063E+002	1,8551347E-001
30/08/2025 22:42:36.2985	2,3856429E+002	1,8597728E-001
30/08/2025 22:42:39.6985	2,3857063E+002	1,8660903E-001
30/08/2025 22:42:43.0985	2,3862155E+002	1,8714893E-001
30/08/2025 22:42:46.4985	2,3857063E+002	1,8737563E-001
30/08/2025 22:42:49.8985	2,3865974E+002	1,8754491E-001
30/08/2025 22:42:53.2985	2,3857701E+002	1,8779676E-001
30/08/2025 22:42:56.6985	2,3861520E+002	1,8808471E-001
30/08/2025 22:43:00.0985	2,3858337E+002	1,8851724E-001
30/08/2025 22:43:03.3989	8,6142294E-002	7,3877610E-002
30/08/2025 22:43:06.7989	1,4341676E-001	5,2334007E-002
30/08/2025 22:43:10.1989	1,4978060E-001	4,0287483E-002
30/08/2025 22:43:13.5989	1,1159762E-001	3,1966418E-002
30/08/2025 22:43:16.9989	1,0523378E-001	2,5754699E-002
30/08/2025 22:43:20.3989	9,2506140E-002	2,0965686E-002
30/08/2025 22:43:23.7989	5,4323155E-002	1,7241489E-002
30/08/2025 22:43:27.1989	6,0686987E-002	1,4326056E-002
30/08/2025 22:43:30.5989	4,1595493E-002	1,1986938E-002
30/08/2025 22:43:33.9989	1,8159975E-001	1,0070501E-002
30/08/2025 22:43:37.3989	1,6887209E-001	8,4749786E-003
30/08/2025 22:43:40.7989	1,1159762E-001	7,1446002E-003
30/08/2025 22:43:44.1989	1,4341676E-001	6,0487669E-003
30/08/2025 22:43:47.5989	9,2506140E-002	5,1628025E-003
30/08/2025 22:43:50.9989	1,7523590E-001	4,4394541E-003
30/08/2025 22:43:54.3989	8,6142294E-002	3,8762388E-003
30/08/2025 22:43:57.7989	5,4323155E-002	3,4516500E-003
30/08/2025 22:44:01.1989	9,2506140E-002	3,1279463E-003
30/08/2025 22:44:04.5989	4,1595493E-002	2,8927892E-003
30/08/2025 22:44:07.9989	1,9432738E-001	2,7269262E-003
30/08/2025 22:44:11.3989	9,2506140E-002	2,6146576E-003
30/08/2025 22:44:14.7989	1,0523378E-001	2,5348202E-003
30/08/2025 22:44:18.1989	1,2432528E-001	2,4939084E-003
30/08/2025 22:44:21.5989	9,2506140E-002	2,4753434E-003
30/08/2025 22:44:24.9989	8,6142294E-002	2,4673599E-003
30/08/2025 22:44:28.3989	1,5614443E-001	2,4732808E-003
30/08/2025 22:44:31.7989	8,6142294E-002	2,4913109E-003
30/08/2025 22:44:35.1989	1,4341676E-001	2,5154150E-003
30/08/2025 22:44:38.5989	1,3705294E-001	2,5472734E-003
30/08/2025 22:44:41.9989	1,4978060E-001	2,5713011E-003
30/08/2025 22:44:45.3989	1,4978060E-001	2,6041907E-003
30/08/2025 22:44:48.7989	1,0523378E-001	2,6491138E-003
30/08/2025 22:44:52.1989	1,1796144E-001	2,6790239E-003
30/08/2025 22:44:55.5989	1,3068911E-001	2,7093545E-003
30/08/2025 22:44:58.9989	1,1159762E-001	2,7498461E-003
30/08/2025 22:45:02.2991	-2,3837289E+002	-8,6913303E-002
30/08/2025 22:45:05.6991	-2,3830923E+002	-1,1304434E-001
30/08/2025 22:45:09.0991	-2,3836017E+002	-1,2779452E-001
30/08/2025 22:45:12.4991	-2,3836017E+002	-1,3846092E-001
30/08/2025 22:45:15.8991	-2,3823288E+002	-1,4651157E-001
30/08/2025 22:45:19.2991	-2,3839835E+002	-1,5279508E-001
30/08/2025 22:45:22.6991	-2,3832198E+002	-1,5795167E-001
30/08/2025 22:45:26.0991	-2,3830923E+002	-1,6219978E-001
30/08/2025 22:45:29.4991	-2,3832198E+002	-1,6582179E-001
30/08/2025 22:45:32.8991	-2,3831561E+002	-1,6908610E-001
30/08/2025 22:45:36.2991	-2,3832834E+002	-1,7184648E-001
30/08/2025 22:45:39.6991	-2,3834106E+002	-1,7405321E-001
30/08/2025 22:45:43.0991	-2,3833472E+002	-1,7584844E-001
30/08/2025 22:45:46.4991	-2,3833472E+002	-1,7745152E-001
30/08/2025 22:45:49.8991	-2,3829016E+002	-1,7886782E-001
30/08/2025 22:45:53.2991	-2,3829016E+002	-1,8023837E-001
30/08/2025 22:45:56.6991	-2,3832834E+002	-1,8161848E-001
30/08/2025 22:46:00.0991	-2,3830923E+002	-1,8271519E-001
30/08/2025 22:46:03.4991	-2,3830289E+002	-1,8341361E-001
30/08/2025 22:46:06.8991	-2,3834743E+002	-1,8400292E-001
30/08/2025 22:46:10.2991	-2,3833472E+002	-1,8459538E-001
30/08/2025 22:46:13.6991	-2,3833472E+002	-1,8514241E-001
30/08/2025 22:46:17.0991	-2,3837289E+002	-1,8585093E-001
30/08/2025 22:46:20.4991	-2,3830923E+002	-1,8670076E-001
30/08/2025 22:46:23.8991	-2,3831561E+002	-1,8726256E-001
30/08/2025 22:46:27.2991	-2,3837926E+002	-1,8757240E-001
30/08/2025 22:46:30.6991	-2,3831561E+002	-1,8783052E-001
30/08/2025 22:46:34.0991	-2,3835381E+002	-1,8809108E-001
30/08/2025 22:46:37.4991	-2,3829652E+002	-1,8845932E-001
30/08/2025 22:46:40.8991	-2,3834106E+002	-1,8903437E-001
30/08/2025 22:46:44.2991	-2,3831561E+002	-1,8967472E-001
30/08/2025 22:46:47.6991	-2,3826471E+002	-1,9011320E-001
30/08/2025 22:46:51.0991	-2,3834106E+002	-1,9033408E-001
30/08/2025 22:46:54.4991	-2,3832198E+002	-1,9050594E-001
30/08/2025 22:46:57.8991	-2,3833472E+002	-1,9077754E-001
30/08/2025 22:47:01.2991	-2,3832198E+002	-1,9119124E-001
30/08/2025 22:47:04.5993	2,6503784E+002	6,1512806E-002
30/08/2025 22:47:07.9993	2,6509509E+002	9,3338072E-002
30/08/2025 22:47:11.3993	2,6507599E+002	1,1458384E-001
30/08/2025 22:47:14.7993	2,6496143E+002	1,3083331E-001
30/08/2025 22:47:18.1993	2,6506961E+002	1,4366037E-001
30/08/2025 22:47:21.5993	2,6505692E+002	1,5388311E-001
30/08/2025 22:47:24.9993	2,6505692E+002	1,6223860E-001
30/08/2025 22:47:28.3993	2,6507599E+002	1,6913338E-001
30/08/2025 22:47:31.7993	2,6509509E+002	1,7506972E-001
30/08/2025 22:47:35.1993	2,6512689E+002	1,8038164E-001
30/08/2025 22:47:38.5993	2,6510782E+002	1,8496361E-001
30/08/2025 22:47:41.9993	2,6514597E+002	1,8870649E-001
30/08/2025 22:47:45.3993	2,6505692E+002	1,9197030E-001
30/08/2025 22:47:48.7993	2,6504419E+002	1,9484395E-001
30/08/2025 22:47:52.1993	2,6504419E+002	1,9739923E-001
30/08/2025 22:47:55.5993	2,6512689E+002	1,9978529E-001
30/08/2025 22:47:58.9993	2,6505692E+002	2,0205233E-001
30/08/2025 22:48:02.3993	2,6515872E+002	2,0390804E-001
30/08/2025 22:48:05.7993	2,6511420E+002	2,0523818E-001
30/08/2025 22:48:09.1993	2,6509509E+002	2,0629475E-001
30/08/2025 22:48:12.5993	2,6504419E+002	2,0725749E-001
30/08/2025 22:48:15.9993	2,6506326E+002	2,0820776E-001
30/08/2025 22:48:19.3993	2,6512054E+002	2,0925850E-001
30/08/2025 22:48:22.7993	2,6510147E+002	2,1037149E-001
30/08/2025 22:48:26.1993	2,6503146E+002	2,1121024E-001
30/08/2025 22:48:29.5993	2,6507599E+002	2,1171223E-001
30/08/2025 22:48:32.9993	2,6509509E+002	2,1212737E-001
30/08/2025 22:48:36.3993	2,6509509E+002	2,1256804E-001
30/08/2025 22:48:39.7993	2,6517783E+002	2,1313408E-001
30/08/2025 22:48:43.1993	2,6510782E+002	2,1381330E-001
30/08/2025 22:48:46.5993	2,6509509E+002	2,1457626E-001
30/08/2025 22:48:49.9993	2,6512054E+002	2,1522784E-001
30/08/2025 22:48:53.3993	2,6507599E+002	2,1555591E-001
30/08/2025 22:48:56.7993	2,6510782E+002	2,1580982E-001
30/08/2025 22:49:00.1993	2,6514597E+002	2,1615717E-001
30/08/2025 22:49:03.4997	1,4978060E-001	8,3397262E-002
30/08/2025 22:49:06.8997	1,0523378E-001	5,9298795E-002
30/08/2025 22:49:10.2997	1,3068911E-001	4,5830786E-002
30/08/2025 22:49:13.6997	1,2432528E-001	3,6547285E-002
30/08/2025 22:49:17.0997	5,4323155E-002	2,9641397E-002
30/08/2025 22:49:20.4997	2,0069122E-001	2,4341695E-002
30/08/2025 22:49:23.8997	2,0069122E-001	2,0174533E-002
30/08/2025 22:49:27.2997	9,2506140E-002	1,6886922E-002
30/08/2025 22:49:30.6997	1,0523378E-001	1,4223986E-002
30/08/2025 22:49:34.0997	1,4978060E-001	1,2065745E-002
30/08/2025 22:49:37.4997	1,4978060E-001	1,0261958E-002
30/08/2025 22:49:40.8997	1,3068911E-001	8,7571209E-003
30/08/2025 22:49:44.2997	1,5614443E-001	7,5187269E-003
30/08/2025 22:49:47.6997	1,6250826E-001	6,4866492E-003
30/08/2025 22:49:51.0997	9,2506140E-002	5,6663123E-003
30/08/2025 22:49:54.4997	3,5231672E-002	5,0241761E-003
30/08/2025 22:49:57.8997	1,4341676E-001	4,5195208E-003
30/08/2025 22:50:01.2997	1,9432738E-001	4,1450113E-003
30/08/2025 22:50:04.6997	7,3414646E-002	3,8735266E-003
30/08/2025 22:50:08.0997	9,8869957E-002	3,6760345E-003
30/08/2025 22:50:11.4997	1,3068911E-001	3,5420682E-003
30/08/2025 22:50:14.8997	6,0686987E-002	3,4537509E-003
30/08/2025 22:50:18.2997	1,3705294E-001	3,4007297E-003
30/08/2025 22:50:21.6997	8,6142294E-002	3,3711251E-003
30/08/2025 22:50:25.0997	7,3414646E-002	3,3627595E-003
30/08/2025 22:50:28.4997	1,1796144E-001	3,3606966E-003
30/08/2025 22:50:31.8997	9,8869957E-002	3,3889262E-003
30/08/2025 22:50:35.2997	1,1159762E-001	3,4134884E-003
30/08/2025 22:50:38.6997	8,6142294E-002	3,4420998E-003
30/08/2025 22:50:42.0997	1,3705294E-001	3,4830119E-003
30/08/2025 22:50:45.4997	6,0686987E-002	3,5113178E-003
30/08/2025 22:50:48.8997	1,1796144E-001	3,5550562E-003
30/08/2025 22:50:52.2997	1,3705294E-001	3,5853102E-003
30/08/2025 22:50:55.6997	1,8796356E-001	3,6246560E-003
30/08/2025 22:50:59.0997	7,9778478E-002	3,6664465E-003
30/08/2025 22:51:02.3999	-2,6482095E+002	-9,6963659E-002
30/08/2025 22:51:05.7999	-2,6474460E+002	-1,2520885E-001
30/08/2025 22:51:09.1999	-2,6478278E+002	-1,4148010E-001
30/08/2025 22:51:12.5999	-2,6481461E+002	-1,5350795E-001
30/08/2025 22:51:15.9999	-2,6478915E+002	-1,6309178E-001
30/08/2025 22:51:19.3999	-2,6478278E+002	-1,7073989E-001
30/08/2025 22:51:22.7999	-2,6482095E+002	-1,7673326E-001
30/08/2025 22:51:26.1999	-2,6488458E+002	-1,8153150E-001
30/08/2025 22:51:29.5999	-2,6479550E+002	-1,8557842E-001
30/08/2025 22:51:32.9999	-2,6482733E+002	-1,8911681E-001
30/08/2025 22:51:36.3999	-2,6482095E+002	-1,9231851E-001
30/08/2025 22:51:39.7999	-2,6478915E+002	-1,9529746E-001
30/08/2025 22:51:43.1999	-2,6481461E+002	-1,9774409E-001
30/08/2025 22:51:46.5999	-2,6478278E+002	-1,9961637E-001
30/08/2025 22:51:49.9999	-2,6480188E+002	-2,0117956E-001
30/08/2025 22:51:53.3999	-2,6480823E+002	-2,0265630E-001
30/08/2025 22:51:56.7999	-2,6475095E+002	-2,0400114E-001
30/08/2025 22:52:00.1999	-2,6479550E+002	-2,0536225E-001
30/08/2025 22:52:03.5999	-2,6477643E+002	-2,0672211E-001
30/08/2025 22:52:06.9999	-2,6482095E+002	-2,0781440E-001
30/08/2025 22:52:10.3999	-2,6479550E+002	-2,0855944E-001
30/08/2025 22:52:13.7999	-2,6481461E+002	-2,0914595E-001
30/08/2025 22:52:17.1999	-2,6479550E+002	-2,0977025E-001
30/08/2025 22:52:20.5999	-2,6479550E+002	-2,1038385E-001
30/08/2025 22:52:23.9999	-2,6482095E+002	-2,1121366E-001
30/08/2025 22:52:27.3999	-2,6478278E+002	-2,1206857E-001
30/08/2025 22:52:30.7999	-2,6482095E+002	-2,1264443E-001
30/08/2025 22:52:34.1999	-2,6477005E+002	-2,1299127E-001
30/08/2025 22:52:37.5999	-2,6480188E+002	-2,1335143E-001
30/08/2025 22:52:40.9999	-2,6479550E+002	-2,1379167E-001
30/08/2025 22:52:44.3999	-2,6475095E+002	-2,1430209E-001
30/08/2025 22:52:47.7999	-2,6479550E+002	-2,1504246E-001
30/08/2025 22:52:51.1999	-2,6482095E+002	-2,1585670E-001
30/08/2025 22:52:54.5999	-2,6473187E+002	-2,1634521E-001
30/08/2025 22:52:57.9999	-2,6480188E+002	-2,1657306E-001
30/08/2025 22:53:01.3999	-2,6479550E+002	-2,1689215E-001
30/08/2025 22:53:04.7001	2,9158771E+002	6,8932630E-002
30/08/2025 22:53:08.1001	2,9159409E+002	1,0316470E-001
30/08/2025 22:53:11.5001	2,9156860E+002	1,2625286E-001
30/08/2025 22:53:14.9001	2,9157498E+002	1,4425269E-001
30/08/2025 22:53:18.3001	2,9158136E+002	1,5896806E-001
30/08/2025 22:53:21.7001	2,9159409E+002	1,7089140E-001
30/08/2025 22:53:25.1001	2,9148587E+002	1,8040161E-001
30/08/2025 22:53:28.5001	2,9156223E+002	1,8823718E-001
30/08/2025 22:53:31.9001	2,9160043E+002	1,9493906E-001
30/08/2025 22:53:35.3001	2,9157498E+002	2,0083182E-001
30/08/2025 22:53:38.7001	2,9153043E+002	2,0621857E-001
30/08/2025 22:53:42.1001	2,9156223E+002	2,1115319E-001
30/08/2025 22:53:45.5001	2,9161951E+002	2,1538442E-001
30/08/2025 22:53:48.9001	2,9156860E+002	2,1882285E-001
30/08/2025 22:53:52.3001	2,9154315E+002	2,2180246E-001
30/08/2025 22:53:55.7001	2,9158136E+002	2,2445196E-001
30/08/2025 22:53:59.1001	2,9155588E+002	2,2684661E-001
30/08/2025 22:54:02.5001	2,9161951E+002	2,2919072E-001
30/08/2025 22:54:05.9001	2,9153043E+002	2,3135702E-001
30/08/2025 22:54:09.3001	2,9162585E+002	2,3304239E-001
30/08/2025 22:54:12.7001	2,9160043E+002	2,3433007E-001
30/08/2025 22:54:16.1001	2,9155588E+002	2,3552579E-001
30/08/2025 22:54:19.5001	2,9153043E+002	2,3674059E-001
30/08/2025 22:54:22.9001	2,9153680E+002	2,3798504E-001
30/08/2025 22:54:26.3001	2,9158136E+002	2,3939614E-001
30/08/2025 22:54:29.7001	2,9151773E+002	2,4082512E-001
30/08/2025 22:54:33.1001	2,9155588E+002	2,4186106E-001
30/08/2025 22:54:36.5001	2,9160678E+002	2,4256140E-001
30/08/2025 22:54:39.9001	2,9153680E+002	2,4330118E-001
30/08/2025 22:54:43.3001	2,9153043E+002	2,4408229E-001
30/08/2025 22:54:46.7001	2,9149225E+002	2,4500771E-001
30/08/2025 22:54:50.1001	2,9161316E+002	2,4622376E-001
30/08/2025 22:54:53.5001	2,9163861E+002	2,4738587E-001
30/08/2025 22:54:56.9001	2,9158771E+002	2,4808611E-001
30/08/2025 22:55:00.3001	2,9159409E+002	2,4863873E-001
30/08/2025 22:55:03.6005	8,6142294E-002	9,4046332E-002
30/08/2025 22:55:07.0005	1,1796144E-001	6,7297451E-002
30/08/2025 22:55:10.4005	1,8796356E-001	5,2246835E-002
30/08/2025 22:55:13.8005	1,1796144E-001	4,1838810E-002
30/08/2025 22:55:17.2005	1,0523378E-001	3,4073129E-002
30/08/2025 22:55:20.6005	1,1796144E-001	2,8125597E-002
30/08/2025 22:55:24.0005	1,0523378E-001	2,3478728E-002
30/08/2025 22:55:27.4005	1,0523378E-001	1,9776380E-002
30/08/2025 22:55:30.8005	1,1159762E-001	1,6765943E-002
30/08/2025 22:55:34.2005	6,7050815E-002	1,4291638E-002
30/08/2025 22:55:37.6005	1,1159762E-001	1,2245626E-002
30/08/2025 22:55:41.0005	9,2506140E-002	1,0525497E-002
30/08/2025 22:55:44.4005	6,7050815E-002	9,1079464E-003
30/08/2025 22:55:47.8005	7,3414646E-002	7,9422845E-003
30/08/2025 22:55:51.2005	8,6142294E-002	6,9900062E-003
30/08/2025 22:55:54.6005	9,8869957E-002	6,2462208E-003
30/08/2025 22:55:58.0005	9,8869957E-002	5,6602764E-003
30/08/2025 22:56:01.4005	7,3414646E-002	5,2183066E-003
30/08/2025 22:56:04.8005	1,4978060E-001	4,8962836E-003
30/08/2025 22:56:08.2005	9,8869957E-002	4,6599046E-003
30/08/2025 22:56:11.6005	1,1159762E-001	4,4966009E-003
30/08/2025 22:56:15.0005	1,0523378E-001	4,3917815E-003
30/08/2025 22:56:18.4005	6,7050815E-002	4,3248553E-003
30/08/2025 22:56:21.8005	7,3414646E-002	4,2829886E-003
30/08/2025 22:56:25.2005	6,7050815E-002	4,2656460E-003
30/08/2025 22:56:28.6005	1,0523378E-001	4,2745466E-003
30/08/2025 22:56:32.0005	7,3414646E-002	4,2922711E-003
30/08/2025 22:56:35.4005	1,1796144E-001	4,3150000E-003
30/08/2025 22:56:38.8005	1,7523590E-001	4,3552243E-003
30/08/2025 22:56:42.2005	1,0523378E-001	4,3888018E-003
30/08/2025 22:56:45.6005	6,7050815E-002	4,4318521E-003
30/08/2025 22:56:49.0005	1,0523378E-001	4,4751330E-003
30/08/2025 22:56:52.4005	1,1159762E-001	4,5180693E-003
30/08/2025 22:56:55.8005	6,0686987E-002	4,5524486E-003
30/08/2025 22:56:59.2005	1,1796144E-001	4,5929020E-003
30/08/2025 22:57:02.5007	-2,9137723E+002	-1,0770281E-001
30/08/2025 22:57:05.9007	-2,9128177E+002	-1,3779892E-001
30/08/2025 22:57:09.3007	-2,9129449E+002	-1,5573159E-001
30/08/2025 22:57:12.7007	-2,9137088E+002	-1,6907254E-001
30/08/2025 22:57:16.1007	-2,9137088E+002	-1,7968521E-001
30/08/2025 22:57:19.5007	-2,9136447E+002	-1,8846926E-001
30/08/2025 22:57:22.9007	-2,9135178E+002	-1,9571167E-001
30/08/2025 22:57:26.3007	-2,9135812E+002	-2,0151234E-001
30/08/2025 22:57:29.7007	-2,9131360E+002	-2,0619744E-001
30/08/2025 22:57:33.1007	-2,9131995E+002	-2,1018636E-001
30/08/2025 22:57:36.5007	-2,9133902E+002	-2,1373984E-001
30/08/2025 22:57:39.9007	-2,9130084E+002	-2,1695839E-001
30/08/2025 22:57:43.3007	-2,9134540E+002	-2,1999793E-001
30/08/2025 22:57:46.7007	-2,9137088E+002	-2,2270308E-001
30/08/2025 22:57:50.1007	-2,9135812E+002	-2,2483367E-001
30/08/2025 22:57:53.5007	-2,9135178E+002	-2,2642228E-001
30/08/2025 22:57:56.9007	-2,9130722E+002	-2,2793372E-001
30/08/2025 22:58:00.3007	-2,9135178E+002	-2,2938408E-001
30/08/2025 22:58:03.7007	-2,9133902E+002	-2,3079556E-001
30/08/2025 22:58:07.1007	-2,9140903E+002	-2,3235105E-001
30/08/2025 22:58:10.5007	-2,9128812E+002	-2,3374984E-001
30/08/2025 22:58:13.9007	-2,9137088E+002	-2,3462920E-001
30/08/2025 22:58:17.3007	-2,9135178E+002	-2,3537658E-001
30/08/2025 22:58:20.7007	-2,9136447E+002	-2,3615998E-001
30/08/2025 22:58:24.1007	-2,9142816E+002	-2,3696351E-001
30/08/2025 22:58:27.5007	-2,9132629E+002	-2,3794034E-001
30/08/2025 22:58:30.9007	-2,9138358E+002	-2,3911330E-001
30/08/2025 22:58:34.3007	-2,9130722E+002	-2,4011165E-001
30/08/2025 22:58:37.7007	-2,9138995E+002	-2,4079190E-001
30/08/2025 22:58:41.1007	-2,9135812E+002	-2,4132808E-001
30/08/2025 22:58:44.5007	-2,9138995E+002	-2,4187876E-001
30/08/2025 22:58:47.9007	-2,9133267E+002	-2,4251525E-001
30/08/2025 22:58:51.3007	-2,9137723E+002	-2,4341512E-001
30/08/2025 22:58:54.7007	-2,9135178E+002	-2,4449334E-001
30/08/2025 22:58:58.1007	-2,9133902E+002	-2,4533041E-001
30/08/2025 22:59:01.5007	-2,9134540E+002	-2,4584103E-001
30/08/2025 22:59:04.8009	3,1816302E+002	7,6817796E-002
30/08/2025 22:59:08.2009	3,1817581E+002	1,1318485E-001
30/08/2025 22:59:11.6009	3,1810577E+002	1,3820882E-001
30/08/2025 22:59:15.0009	3,1811853E+002	1,5789358E-001
30/08/2025 22:59:18.4009	3,1815033E+002	1,7412277E-001
30/08/2025 22:59:21.8009	3,1814395E+002	1,8774679E-001
30/08/2025 22:59:25.2009	3,1809943E+002	1,9910038E-001
30/08/2025 22:59:28.6009	3,1816940E+002	2,0829889E-001
30/08/2025 22:59:32.0009	3,1822668E+002	2,1588327E-001
30/08/2025 22:59:35.4009	3,1809305E+002	2,2257967E-001
30/08/2025 22:59:38.8009	3,1817581E+002	2,2858059E-001
30/08/2025 22:59:42.2009	3,1813126E+002	2,3410508E-001
30/08/2025 22:59:45.6009	3,1813126E+002	2,3935658E-001
30/08/2025 22:59:49.0009	3,1818216E+002	2,4400364E-001
30/08/2025 22:59:52.4009	3,1818216E+002	2,4767271E-001
30/08/2025 22:59:55.8009	3,1813760E+002	2,5081602E-001
30/08/2025 22:59:59.2009	3,1812488E+002	2,5370261E-001
30/08/2025 23:00:02.6009	3,1818216E+002	2,5635374E-001
30/08/2025 23:00:06.0009	3,1813760E+002	2,5900209E-001
30/08/2025 23:00:09.4009	3,1811853E+002	2,6171765E-001
30/08/2025 23:00:12.8009	3,1819489E+002	2,6423168E-001
30/08/2025 23:00:16.2009	3,1811853E+002	2,6642647E-001
30/08/2025 23:00:19.6009	3,1816940E+002	2,6846313E-001
30/08/2025 23:00:23.0009	3,1819489E+002	2,7061653E-001
30/08/2025 23:00:26.4009	3,1812488E+002	2,7295995E-001
30/08/2025 23:00:29.8009	3,1818851E+002	2,7562556E-001
30/08/2025 23:00:33.2009	3,1810577E+002	2,7861243E-001
30/08/2025 23:00:36.6009	3,1816940E+002	2,8140575E-001
30/08/2025 23:00:40.0009	3,1821399E+002	2,8375408E-001
30/08/2025 23:00:43.4009	3,1815033E+002	2,8601059E-001
30/08/2025 23:00:46.8009	3,1817581E+002	2,8835404E-001
30/08/2025 23:00:50.2009	3,1816302E+002	2,9076412E-001
30/08/2025 23:00:53.6009	3,1811853E+002	2,9353663E-001
30/08/2025 23:00:57.0009	3,1819489E+002	2,9649398E-001
30/08/2025 23:01:00.4009	3,1820761E+002	2,9915437E-001
30/08/2025 23:01:03.7013	1,4341676E-001	1,0949434E-001
30/08/2025 23:01:07.1013	1,0523378E-001	7,8914151E-002
30/08/2025 23:01:10.5013	1,3068911E-001	6,1661139E-002
30/08/2025 23:01:13.9013	1,1159762E-001	4,9629703E-002
30/08/2025 23:01:17.3013	7,9778478E-002	4,0621046E-002
30/08/2025 23:01:20.7013	9,8869957E-002	3,3660114E-002
30/08/2025 23:01:24.1013	1,1796144E-001	2,8220067E-002
30/08/2025 23:01:27.5013	2,8867837E-002	2,3885820E-002
30/08/2025 23:01:30.9013	1,1796144E-001	2,0346854E-002
30/08/2025 23:01:34.3013	1,3705294E-001	1,7414343E-002
30/08/2025 23:01:37.7013	1,6887209E-001	1,4959673E-002
30/08/2025 23:01:41.1013	1,6250826E-001	1,2914847E-002
30/08/2025 23:01:44.5013	1,5614443E-001	1,1194220E-002
30/08/2025 23:01:47.9013	1,7523590E-001	9,7874040E-003
30/08/2025 23:01:51.3013	1,3705294E-001	8,6367540E-003
30/08/2025 23:01:54.7013	1,1796144E-001	7,7268770E-003
30/08/2025 23:01:58.1013	9,2506140E-002	7,0119705E-003
30/08/2025 23:02:01.5013	1,0523378E-001	6,4537972E-003
30/08/2025 23:02:04.9013	1,1796144E-001	6,0433047E-003
30/08/2025 23:02:08.3013	1,7523590E-001	5,7374015E-003
30/08/2025 23:02:11.7013	7,3414646E-002	5,5306270E-003
30/08/2025 23:02:15.1013	1,1159762E-001	5,3739320E-003
30/08/2025 23:02:18.5013	1,7523590E-001	5,2770195E-003
30/08/2025 23:02:21.9013	9,8869957E-002	5,2232728E-003
30/08/2025 23:02:25.3013	4,7959324E-002	5,1950812E-003
30/08/2025 23:02:28.7013	6,7050815E-002	5,1896567E-003
30/08/2025 23:02:32.1013	1,1796144E-001	5,1954631E-003
30/08/2025 23:02:35.5013	7,9778478E-002	5,2183066E-003
30/08/2025 23:02:38.9013	1,6250826E-001	5,2565448E-003
30/08/2025 23:02:42.3013	1,2432528E-001	5,2859965E-003
30/08/2025 23:02:45.7013	1,0523378E-001	5,3335936E-003
30/08/2025 23:02:49.1013	1,6250826E-001	5,3814957E-003
30/08/2025 23:02:52.5013	1,1159762E-001	5,4208795E-003
30/08/2025 23:02:55.9013	1,0523378E-001	5,4679415E-003
30/08/2025 23:02:59.3013	5,4323155E-002	5,5043455E-003
30/08/2025 23:03:02.6015	-3,1787619E+002	-1,1800716E-001
30/08/2025 23:03:06.0015	-3,1788254E+002	-1,5050079E-001
30/08/2025 23:03:09.4015	-3,1785712E+002	-1,7021765E-001
30/08/2025 23:03:12.8015	-3,1792075E+002	-1,8501872E-001
30/08/2025 23:03:16.2015	-3,1792709E+002	-1,9686587E-001
30/08/2025 23:03:19.6015	-3,1784433E+002	-2,0658886E-001
30/08/2025 23:03:23.0015	-3,1789529E+002	-2,1478528E-001
30/08/2025 23:03:26.4015	-3,1792075E+002	-2,2177534E-001
30/08/2025 23:03:29.8015	-3,1790161E+002	-2,2757079E-001
30/08/2025 23:03:33.2015	-3,1785074E+002	-2,3224385E-001
30/08/2025 23:03:36.6015	-3,1785712E+002	-2,3620841E-001
30/08/2025 23:03:40.0015	-3,1784433E+002	-2,3974168E-001
30/08/2025 23:03:43.4015	-3,1790802E+002	-2,4295509E-001
30/08/2025 23:03:46.8015	-3,1784433E+002	-2,4605544E-001
30/08/2025 23:03:50.2015	-3,1786346E+002	-2,4894372E-001
30/08/2025 23:03:53.6015	-3,1787619E+002	-2,5125778E-001
30/08/2025 23:03:57.0015	-3,1784433E+002	-2,5313264E-001
30/08/2025 23:04:00.4015	-3,1788254E+002	-2,5483185E-001
30/08/2025 23:04:03.8015	-3,1785712E+002	-2,5651115E-001
30/08/2025 23:04:07.2015	-3,1792709E+002	-2,5825050E-001
30/08/2025 23:04:10.6015	-3,1792075E+002	-2,6018864E-001
30/08/2025 23:04:14.0015	-3,1788892E+002	-2,6209441E-001
30/08/2025 23:04:17.4015	-3,1785074E+002	-2,6362094E-001
30/08/2025 23:04:20.8015	-3,1787619E+002	-2,6482451E-001
30/08/2025 23:04:24.2015	-3,1791440E+002	-2,6601663E-001
30/08/2025 23:04:27.6015	-3,1784433E+002	-2,6734611E-001
30/08/2025 23:04:31.0015	-3,1789529E+002	-2,6888269E-001
30/08/2025 23:04:34.4015	-3,1793347E+002	-2,7066073E-001
30/08/2025 23:04:37.8015	-3,1794620E+002	-2,7244264E-001
30/08/2025 23:04:41.2015	-3,1788254E+002	-2,7381736E-001
30/08/2025 23:04:44.6015	-3,1783163E+002	-2,7493331E-001
30/08/2025 23:04:48.0015	-3,1786346E+002	-2,7621663E-001
30/08/2025 23:04:51.4015	-3,1785712E+002	-2,7762368E-001
30/08/2025 23:04:54.8015	-3,1786984E+002	-2,7925774E-001
30/08/2025 23:04:58.2015	-3,1797168E+002	-2,8122598E-001
30/08/2025 23:05:01.6015	-3,1786984E+002	-2,8315282E-001
30/08/2025 23:05:01.7017	-3,1795255E+002	-2,8276441E-001