File: data/phase_2a/Sergey/1/3.3/02 polarisation/SN50_C5D1E1_lr_0,1MFeCN6_in_1M_KCl_3306mL_symmetric_balanced_4_point_PEIS_10mHz_200kHz_10mV_02_CP_C16.txt
time/s	I/mA	<Ewe/V>
26/08/2025 19:28:04.2730	9,8867435E-003	-4,0240171E-003
26/08/2025 19:28:06.5730	7,9776440E-003	-4,0205428E-003
26/08/2025 19:28:08.8730	7,9776440E-003	-4,0261582E-003
26/08/2025 19:28:11.1730	8,6140092E-003	-4,0219184E-003
26/08/2025 19:28:13.4730	1,1159477E-002	-4,0250123E-003
26/08/2025 19:28:15.7730	9,2503773E-003	-4,0363199E-003
26/08/2025 19:28:18.0730	4,1594426E-003	-4,0248600E-003
26/08/2025 19:28:20.3730	7,9776440E-003	-4,0281829E-003
26/08/2025 19:28:22.6730	2,2503431E-003	-4,0323087E-003
26/08/2025 19:28:24.9730	1,0523110E-002	-4,0374654E-003
26/08/2025 19:28:27.2730	7,3412773E-003	-4,0394138E-003
26/08/2025 19:28:29.5730	6,7049102E-003	-4,0406743E-003
26/08/2025 19:28:31.8730	3,5230771E-003	-4,0366636E-003
26/08/2025 19:28:34.1730	6,7049102E-003	-4,0337220E-003
26/08/2025 19:28:36.4730	7,9776440E-003	-4,0385351E-003
26/08/2025 19:28:38.7730	2,2503431E-003	-4,0407511E-003
26/08/2025 19:28:41.0730	1,1795843E-002	-4,0371600E-003
26/08/2025 19:28:43.3730	9,2503773E-003	-4,0394519E-003
26/08/2025 19:28:45.6730	1,6139771E-003	-4,0425844E-003
26/08/2025 19:28:47.9730	8,6140092E-003	-4,0422408E-003
26/08/2025 19:28:50.2730	1,3068578E-002	-4,0385732E-003
26/08/2025 19:28:52.5730	3,5230771E-003	-4,0407511E-003
26/08/2025 19:28:54.8730	1,1795843E-002	-4,0395283E-003
26/08/2025 19:28:57.1730	4,7958097E-003	-4,0435395E-003
26/08/2025 19:28:59.4730	6,0685435E-003	-4,0427372E-003
26/08/2025 19:29:01.7730	1,2432210E-002	-4,0384587E-003
26/08/2025 19:29:04.0730	8,6140092E-003	-4,0422785E-003
26/08/2025 19:29:06.3730	6,7049102E-003	-4,0423931E-003
26/08/2025 19:29:08.6730	8,6140092E-003	-4,0436541E-003
26/08/2025 19:29:10.9730	1,4341311E-002	-4,0443414E-003
26/08/2025 19:29:13.2730	8,6140092E-003	-4,0497277E-003
26/08/2025 19:29:15.5730	7,9776440E-003	-4,0466338E-003
26/08/2025 19:29:17.8730	1,1795843E-002	-4,0431959E-003
26/08/2025 19:29:20.1730	1,3704944E-002	-4,0470539E-003
26/08/2025 19:29:22.4730	1,4341311E-002	-4,0541966E-003
26/08/2025 19:29:24.7730	6,7049102E-003	-4,0422785E-003
26/08/2025 19:29:27.0730	3,5230771E-003	-4,0455256E-003
26/08/2025 19:29:29.3730	6,7049102E-003	-4,0523633E-003
26/08/2025 19:29:31.6730	7,9776440E-003	-4,0471684E-003
26/08/2025 19:29:33.9730	5,4321769E-003	-4,0459842E-003
26/08/2025 19:29:36.2730	1,4977678E-002	-4,0476266E-003
26/08/2025 19:29:38.5730	8,6140092E-003	-4,0480471E-003
26/08/2025 19:29:40.8730	1,0523110E-002	-4,0412094E-003
26/08/2025 19:29:43.1730	6,7049102E-003	-4,0424699E-003
26/08/2025 19:29:45.4730	1,0523110E-002	-4,0494604E-003
26/08/2025 19:29:47.7730	1,3068578E-002	-4,0426226E-003
26/08/2025 19:29:50.0730	9,8867435E-003	-4,0456788E-003
26/08/2025 19:29:52.3730	6,7049102E-003	-4,0484671E-003
26/08/2025 19:29:54.6730	6,7049102E-003	-4,0462129E-003
26/08/2025 19:29:56.9730	6,7049102E-003	-4,0397197E-003
26/08/2025 19:29:59.2730	9,8867435E-003	-4,0523252E-003
26/08/2025 19:30:01.5730	8,6140092E-003	-4,0512555E-003
26/08/2025 19:30:03.8730	1,1795843E-002	-4,0451055E-003
26/08/2025 19:30:06.1730	9,8867435E-003	-4,0485053E-003
26/08/2025 19:30:08.4730	9,8867435E-003	-4,0504537E-003
26/08/2025 19:30:10.7730	9,8867435E-003	-4,0442273E-003
26/08/2025 19:30:13.0730	1,0523110E-002	-4,0448760E-003
26/08/2025 19:30:15.3730	6,0685435E-003	-4,0477412E-003
26/08/2025 19:30:17.6730	6,0685435E-003	-4,0470539E-003
26/08/2025 19:30:19.9730	8,6140092E-003	-4,0432718E-003
26/08/2025 19:30:22.2730	9,2503773E-003	-4,0469388E-003
26/08/2025 19:30:24.5730	9,2503773E-003	-4,0431577E-003
26/08/2025 19:30:26.8730	8,6140092E-003	-4,0439214E-003
26/08/2025 19:30:29.1730	9,2503773E-003	-4,0430808E-003
26/08/2025 19:30:31.4730	1,0523110E-002	-4,0454492E-003
26/08/2025 19:30:33.7730	4,1594426E-003	-4,0494222E-003
26/08/2025 19:30:36.0730	6,7049102E-003	-4,0469007E-003
26/08/2025 19:30:38.3730	7,9776440E-003	-4,0514464E-003
26/08/2025 19:30:40.6730	1,2432210E-002	-4,0491167E-003
26/08/2025 19:30:42.9730	9,8867435E-003	-4,0441505E-003
26/08/2025 19:30:45.2730	9,2503773E-003	-4,0490404E-003
26/08/2025 19:30:47.5730	9,2503773E-003	-4,0519815E-003
26/08/2025 19:30:49.8730	4,1594426E-003	-4,0409416E-003
26/08/2025 19:30:52.1730	1,6139771E-003	-4,0472825E-003
26/08/2025 19:30:54.4730	9,8867435E-003	-4,0518669E-003
26/08/2025 19:30:56.7730	1,2432210E-002	-4,0449528E-003
26/08/2025 19:30:59.0730	8,6140092E-003	-4,0412094E-003
26/08/2025 19:31:01.3730	1,3704944E-002	-4,0551899E-003
26/08/2025 19:31:03.6730	6,7049102E-003	-4,0505300E-003
26/08/2025 19:31:05.9730	1,1159477E-002	-4,0432718E-003
26/08/2025 19:31:08.2730	1,0523110E-002	-4,0489635E-003
26/08/2025 19:31:10.5730	1,3704944E-002	-4,0543498E-003
26/08/2025 19:31:12.8730	9,7761012E-004	-4,0435777E-003
26/08/2025 19:31:15.1730	1,1159477E-002	-4,0487344E-003
26/08/2025 19:31:17.4730	1,3068578E-002	-4,0527834E-003
26/08/2025 19:31:19.7730	1,3704944E-002	-4,0384969E-003
26/08/2025 19:31:22.0730	1,3704944E-002	-4,0517519E-003
26/08/2025 19:31:24.3730	1,1159477E-002	-4,0528602E-003
26/08/2025 19:31:26.6730	7,9776440E-003	-4,0551517E-003
26/08/2025 19:31:28.9730	1,1795843E-002	-4,0469388E-003
26/08/2025 19:31:31.2730	9,8867435E-003	-4,0553813E-003
26/08/2025 19:31:33.5730	9,8867435E-003	-4,0536239E-003
26/08/2025 19:31:35.8730	6,7049102E-003	-4,0446091E-003
26/08/2025 19:31:38.1730	2,8867100E-003	-4,0504918E-003
26/08/2025 19:31:40.4730	4,1594426E-003	-4,0517901E-003
26/08/2025 19:31:42.7730	6,7049102E-003	-4,0443796E-003
26/08/2025 19:31:45.0730	6,7049102E-003	-4,0511792E-003
26/08/2025 19:31:47.3730	7,3412773E-003	-4,0509882E-003
26/08/2025 19:31:49.6730	5,4321769E-003	-4,0499568E-003
26/08/2025 19:31:51.9730	1,3068578E-002	-4,0513319E-003
26/08/2025 19:31:54.2730	1,2432210E-002	-4,0543498E-003
26/08/2025 19:31:56.5730	9,7761012E-004	-4,0545794E-003
26/08/2025 19:31:58.8730	9,2503773E-003	-4,0483526E-003
26/08/2025 19:32:01.1730	9,2503773E-003	-4,0472825E-003
26/08/2025 19:32:03.4730	9,2503773E-003	-4,0506441E-003
26/08/2025 19:32:05.7730	6,0685435E-003	-4,0451819E-003
26/08/2025 19:32:08.0730	1,4341311E-002	-4,0580933E-003
26/08/2025 19:32:10.3730	1,1795843E-002	-4,0552667E-003
26/08/2025 19:32:12.6730	7,3412773E-003	-4,0520197E-003
26/08/2025 19:32:14.9730	1,2432210E-002	-4,0493454E-003
26/08/2025 19:32:17.2730	7,9776440E-003	-4,0602325E-003
26/08/2025 19:32:19.5730	1,4341311E-002	-4,0517137E-003
26/08/2025 19:32:21.8730	2,2503431E-003	-4,0521338E-003
26/08/2025 19:32:24.1730	7,9776440E-003	-4,0489635E-003
26/08/2025 19:32:26.4730	2,2503431E-003	-4,0566032E-003
26/08/2025 19:32:28.7730	1,6250411E-002	-4,0505300E-003
26/08/2025 19:32:31.0730	1,4977678E-002	-4,0587042E-003
26/08/2025 19:32:33.3730	1,0523110E-002	-4,0472443E-003
26/08/2025 19:32:35.6730	4,7958097E-003	-4,0512555E-003
26/08/2025 19:32:37.9730	9,8867435E-003	-4,0490404E-003
26/08/2025 19:32:40.2730	1,3068578E-002	-4,0586661E-003
26/08/2025 19:32:42.5730	1,2432210E-002	-4,0575205E-003
26/08/2025 19:32:44.8730	4,1594426E-003	-4,0561832E-003
26/08/2025 19:32:47.1730	2,0068610E-002	-4,0600412E-003
26/08/2025 19:32:49.4730	1,1159477E-002	-4,0503768E-003
26/08/2025 19:32:51.7730	1,0523110E-002	-4,0478557E-003
26/08/2025 19:32:54.0730	1,3068578E-002	-4,0503386E-003
26/08/2025 19:32:56.3730	9,7761012E-004	-4,0561450E-003
26/08/2025 19:32:58.6730	1,6139771E-003	-4,0528984E-003
26/08/2025 19:33:00.9730	9,2503773E-003	-4,0546553E-003
26/08/2025 19:33:03.2730	6,7049102E-003	-4,0617986E-003
26/08/2025 19:33:05.5730	6,7049102E-003	-4,0549613E-003
26/08/2025 19:33:07.8730	7,9776440E-003	-4,0522488E-003
26/08/2025 19:33:10.1730	9,2503773E-003	-4,0571382E-003
26/08/2025 19:33:12.4730	7,3412773E-003	-4,0527070E-003
26/08/2025 19:33:14.7730	1,3068578E-002	-4,0495750E-003
26/08/2025 19:33:17.0730	9,8867435E-003	-4,0616840E-003
26/08/2025 19:33:19.3730	8,6140092E-003	-4,0575205E-003
26/08/2025 19:33:21.6730	7,3412773E-003	-4,0532420E-003
26/08/2025 19:33:23.9730	6,0685435E-003	-4,0526688E-003
26/08/2025 19:33:26.2730	1,3068578E-002	-4,0538916E-003
26/08/2025 19:33:28.5730	1,0523110E-002	-4,0596593E-003
26/08/2025 19:33:30.8730	7,9776440E-003	-4,0505682E-003
26/08/2025 19:33:33.1730	1,0523110E-002	-4,0588574E-003
26/08/2025 19:33:35.4730	-2,9512335E-004	-4,0552667E-003
26/08/2025 19:33:37.7730	7,9776440E-003	-4,0553813E-003
26/08/2025 19:33:40.0730	2,8867100E-003	-4,0567182E-003
26/08/2025 19:33:42.3730	1,4341311E-002	-4,0585138E-003
26/08/2025 19:33:44.6730	1,3068578E-002	-4,0541203E-003
26/08/2025 19:33:46.9730	5,4321769E-003	-4,0585897E-003
26/08/2025 19:33:49.2730	8,6140092E-003	-4,0615695E-003
26/08/2025 19:33:51.5730	7,3412773E-003	-4,0515615E-003
26/08/2025 19:33:53.8730	1,4341311E-002	-4,0524779E-003
26/08/2025 19:33:56.1730	5,4321769E-003	-4,0661916E-003
26/08/2025 19:33:58.4730	1,6886778E-002	-4,0604235E-003
26/08/2025 19:34:00.7730	6,0685435E-003	-4,0511792E-003
26/08/2025 19:34:03.0730	1,1159477E-002	-4,0585138E-003
26/08/2025 19:34:05.3730	1,1795843E-002	-4,0591629E-003
26/08/2025 19:34:07.6730	1,5614044E-002	-4,0543498E-003
26/08/2025 19:34:09.9730	6,7049102E-003	-4,0580169E-003
26/08/2025 19:34:12.2730	6,7049102E-003	-4,0612258E-003
26/08/2025 19:34:14.5730	1,0523110E-002	-4,0549994E-003
26/08/2025 19:34:16.8730	4,7958097E-003	-4,0579787E-003
26/08/2025 19:34:19.1730	1,0523110E-002	-4,0608821E-003
26/08/2025 19:34:21.4730	1,3704944E-002	-4,0655038E-003
26/08/2025 19:34:23.7730	7,3412773E-003	-4,0486199E-003
26/08/2025 19:34:26.0730	7,9776440E-003	-4,0592011E-003
26/08/2025 19:34:28.3730	6,0685435E-003	-4,0574824E-003
26/08/2025 19:34:30.6730	7,9776440E-003	-4,0533948E-003
26/08/2025 19:34:32.9730	7,3412773E-003	-4,0545026E-003
26/08/2025 19:34:35.2730	6,7049102E-003	-4,0582079E-003
26/08/2025 19:34:37.5730	1,1795843E-002	-4,0533184E-003
26/08/2025 19:34:39.8730	9,2503773E-003	-4,0574060E-003
26/08/2025 19:34:42.1730	4,7958097E-003	-4,0572146E-003
26/08/2025 19:34:44.4730	1,1795843E-002	-4,0506064E-003
26/08/2025 19:34:46.7730	1,0523110E-002	-4,0477030E-003
26/08/2025 19:34:49.0730	1,3704944E-002	-4,0541203E-003
26/08/2025 19:34:51.3730	6,7049102E-003	-4,0559545E-003
26/08/2025 19:34:53.6730	6,0685435E-003	-4,0524397E-003
26/08/2025 19:34:55.9730	1,0523110E-002	-4,0505300E-003
26/08/2025 19:34:58.2730	1,6886778E-002	-4,0537002E-003
26/08/2025 19:35:00.5730	6,7049102E-003	-4,0476266E-003
26/08/2025 19:35:02.8730	1,3068578E-002	-4,0541585E-003
26/08/2025 19:35:05.1730	1,1159477E-002	-4,0570241E-003
26/08/2025 19:35:07.4730	1,4977678E-002	-4,0520197E-003
26/08/2025 19:35:09.7730	1,0523110E-002	-4,0513701E-003
26/08/2025 19:35:12.0730	4,7958097E-003	-4,0608821E-003
26/08/2025 19:35:14.3730	6,7049102E-003	-4,0548844E-003
26/08/2025 19:35:16.6730	1,4341311E-002	-4,0549231E-003
26/08/2025 19:35:18.9730	9,2503773E-003	-4,0578642E-003
26/08/2025 19:35:21.2730	4,1594426E-003	-4,0558777E-003
26/08/2025 19:35:23.5730	8,6140092E-003	-4,0490786E-003
26/08/2025 19:35:25.8730	9,8867435E-003	-4,0530129E-003
26/08/2025 19:35:28.1730	9,8867435E-003	-4,0578642E-003
26/08/2025 19:35:30.4730	7,3412773E-003	-4,0523252E-003
26/08/2025 19:35:32.7730	6,7049102E-003	-4,0540444E-003
26/08/2025 19:35:35.0730	1,0523110E-002	-4,0553431E-003
26/08/2025 19:35:37.3730	2,8867100E-003	-4,0554958E-003
26/08/2025 19:35:39.6730	8,6140092E-003	-4,0512937E-003
26/08/2025 19:35:41.9730	2,0068610E-002	-4,0574442E-003
26/08/2025 19:35:44.2730	1,1159477E-002	-4,0605380E-003
26/08/2025 19:35:46.5730	1,0523110E-002	-4,0515997E-003
26/08/2025 19:35:48.8730	1,0523110E-002	-4,0576733E-003
26/08/2025 19:35:51.1730	1,0523110E-002	-4,0600793E-003
26/08/2025 19:35:53.4730	1,6250411E-002	-4,0542353E-003
26/08/2025 19:35:55.7730	1,3704944E-002	-4,0559927E-003
26/08/2025 19:35:58.0730	1,3068578E-002	-4,0575205E-003
26/08/2025 19:36:00.3730	9,8867435E-003	-4,0516756E-003
26/08/2025 19:36:02.6730	9,8867435E-003	-4,0527070E-003
26/08/2025 19:36:04.9730	9,2503773E-003	-4,0582842E-003
26/08/2025 19:36:07.2730	3,5230771E-003	-4,0586279E-003
26/08/2025 19:36:09.5730	8,6140092E-003	-4,0537002E-003
26/08/2025 19:36:11.8730	7,9776440E-003	-4,0532420E-003
26/08/2025 19:36:14.1730	6,0685435E-003	-4,0619900E-003
26/08/2025 19:36:16.4730	1,3068578E-002	-4,0506064E-003
26/08/2025 19:36:18.7730	1,5614044E-002	-4,0543117E-003
26/08/2025 19:36:21.0730	8,6140092E-003	-4,0535862E-003
26/08/2025 19:36:23.3730	7,9776440E-003	-4,0529366E-003
26/08/2025 19:36:25.6730	9,2503773E-003	-4,0565273E-003
26/08/2025 19:36:27.9730	1,1159477E-002	-4,0558777E-003
26/08/2025 19:36:30.2730	6,0685435E-003	-4,0494604E-003
26/08/2025 19:36:32.5730	1,0523110E-002	-4,0474739E-003
26/08/2025 19:36:34.8730	7,3412773E-003	-4,0511414E-003
26/08/2025 19:36:37.1730	1,3068578E-002	-4,0529366E-003
26/08/2025 19:36:39.4730	4,1594426E-003	-4,0555722E-003
26/08/2025 19:36:41.7730	9,2503773E-003	-4,0616458E-003
26/08/2025 19:36:44.0730	7,9776440E-003	-4,0556868E-003
26/08/2025 19:36:46.3730	9,2503773E-003	-4,0529747E-003
26/08/2025 19:36:48.6730	1,4341311E-002	-4,0491167E-003
26/08/2025 19:36:50.9730	2,2503431E-003	-4,0555722E-003
26/08/2025 19:36:53.2730	6,0685435E-003	-4,0515997E-003
26/08/2025 19:36:55.5730	1,4977678E-002	-4,0525929E-003
26/08/2025 19:36:57.8730	1,4977678E-002	-4,0506441E-003
26/08/2025 19:37:00.1730	6,7049102E-003	-4,0587042E-003
26/08/2025 19:37:02.4730	1,6139771E-003	-4,0525165E-003
26/08/2025 19:37:04.7730	6,7049102E-003	-4,0571000E-003
26/08/2025 19:37:07.0730	1,1795843E-002	-4,0556104E-003
26/08/2025 19:37:09.3730	4,1594426E-003	-4,0528602E-003
26/08/2025 19:37:11.6730	1,3704944E-002	-4,0507591E-003
26/08/2025 19:37:13.9730	4,7958097E-003	-4,0594689E-003
26/08/2025 19:37:16.2730	1,1795843E-002	-4,0593157E-003
26/08/2025 19:37:18.5730	4,7958097E-003	-4,0499950E-003
26/08/2025 19:37:20.8730	9,2503773E-003	-4,0502241E-003
26/08/2025 19:37:23.1730	7,9776440E-003	-4,0582842E-003
26/08/2025 19:37:25.4730	4,7958097E-003	-4,0527452E-003
26/08/2025 19:37:27.7730	7,9776440E-003	-4,0513319E-003
26/08/2025 19:37:30.0730	1,0523110E-002	-4,0592011E-003
26/08/2025 19:37:32.3730	8,6140092E-003	-4,0534711E-003
26/08/2025 19:37:34.6730	1,7523142E-002	-4,0477412E-003
26/08/2025 19:37:36.9730	1,6139771E-003	-4,0582842E-003
26/08/2025 19:37:39.2730	7,9776440E-003	-4,0585515E-003
26/08/2025 19:37:41.5730	9,2503773E-003	-4,0538916E-003
26/08/2025 19:37:43.8730	5,4321769E-003	-4,0566418E-003
26/08/2025 19:37:46.1730	6,0685435E-003	-4,0592775E-003
26/08/2025 19:37:48.4730	1,7523142E-002	-4,0498804E-003
26/08/2025 19:37:50.7730	1,3068578E-002	-4,0542735E-003
26/08/2025 19:37:53.0730	9,8867435E-003	-4,0674522E-003
26/08/2025 19:37:55.3730	4,7958097E-003	-4,0587042E-003
26/08/2025 19:37:57.6730	4,1594426E-003	-4,0519433E-003
26/08/2025 19:37:59.9730	1,0523110E-002	-4,0549994E-003
26/08/2025 19:38:02.2730	8,6140092E-003	-4,0571764E-003
26/08/2025 19:38:04.5256	2,6515194E+001	6,8362141E-003
26/08/2025 19:38:06.8256	2,6510105E+001	9,5608793E-003
26/08/2025 19:38:09.1256	2,6512012E+001	1,1141963E-002
26/08/2025 19:38:11.4256	2,6508196E+001	1,2391014E-002
26/08/2025 19:38:13.7256	2,6515833E+001	1,3354486E-002
26/08/2025 19:38:16.0256	2,6512651E+001	1,4192319E-002
26/08/2025 19:38:18.3256	2,6505014E+001	1,4992296E-002
26/08/2025 19:38:20.6256	2,6510742E+001	1,5700096E-002
26/08/2025 19:38:22.9256	2,6507559E+001	1,6281495E-002
26/08/2025 19:38:25.2256	2,6515194E+001	1,6887838E-002
26/08/2025 19:38:27.5256	2,6514559E+001	1,7467823E-002
26/08/2025 19:38:29.8256	2,6510742E+001	1,7916705E-002
26/08/2025 19:38:32.1256	2,6508831E+001	1,8405279E-002
26/08/2025 19:38:34.4256	2,6515194E+001	1,8870248E-002
26/08/2025 19:38:36.7256	2,6508831E+001	1,9274209E-002
26/08/2025 19:38:39.0256	2,6506924E+001	1,9659145E-002
26/08/2025 19:38:41.3256	2,6518379E+001	2,0057948E-002
26/08/2025 19:38:43.6256	2,6513922E+001	2,0429555E-002
26/08/2025 19:38:45.9256	2,6509470E+001	2,0710934E-002
26/08/2025 19:38:48.2256	2,6512012E+001	2,1056717E-002
26/08/2025 19:38:50.5256	2,6505650E+001	2,1395968E-002
26/08/2025 19:38:52.8256	2,6511377E+001	2,1626731E-002
26/08/2025 19:38:55.1256	2,6506924E+001	2,1926828E-002
26/08/2025 19:38:57.4256	2,6505650E+001	2,2212408E-002
26/08/2025 19:38:59.7256	2,6506285E+001	2,2446536E-002
26/08/2025 19:39:02.0256	2,6506285E+001	2,2657320E-002
26/08/2025 19:39:04.3256	2,6511377E+001	2,2913678E-002
26/08/2025 19:39:06.6256	2,6512012E+001	2,3157660E-002
26/08/2025 19:39:08.9256	2,6509470E+001	2,3298042E-002
26/08/2025 19:39:11.2256	2,6513922E+001	2,3537973E-002
26/08/2025 19:39:13.5256	2,6513922E+001	2,3757964E-002
26/08/2025 19:39:15.8256	2,6512651E+001	2,3886738E-002
26/08/2025 19:39:18.1256	2,6505650E+001	2,4073113E-002
26/08/2025 19:39:20.4256	2,6510742E+001	2,4268810E-002
26/08/2025 19:39:22.7256	2,6509470E+001	2,4447469E-002
26/08/2025 19:39:25.0256	2,6506285E+001	2,4558324E-002
26/08/2025 19:39:27.3256	2,6508831E+001	2,4755282E-002
26/08/2025 19:39:29.6256	2,6510742E+001	2,4923209E-002
26/08/2025 19:39:31.9256	2,6506285E+001	2,5000103E-002
26/08/2025 19:39:34.2256	2,6504377E+001	2,5169939E-002
26/08/2025 19:39:36.5256	2,6503107E+001	2,5338210E-002
26/08/2025 19:39:38.8256	2,6511377E+001	2,5447804E-002
26/08/2025 19:39:41.1256	2,6505014E+001	2,5563318E-002
26/08/2025 19:39:43.4256	2,6515194E+001	2,5727654E-002
26/08/2025 19:39:45.7256	2,6510105E+001	2,5863377E-002
26/08/2025 19:39:48.0256	2,6510105E+001	2,5913037E-002
26/08/2025 19:39:50.3256	2,6510105E+001	2,6064727E-002
26/08/2025 19:39:52.6256	2,6504377E+001	2,6206562E-002
26/08/2025 19:39:54.9256	2,6508831E+001	2,6268065E-002
26/08/2025 19:39:57.2256	2,6508831E+001	2,6388086E-002
26/08/2025 19:39:59.5256	2,6508831E+001	2,6535310E-002
26/08/2025 19:40:01.8256	2,6509470E+001	2,6616560E-002
26/08/2025 19:40:04.1256	2,6506285E+001	2,6677795E-002
26/08/2025 19:40:06.3258	4,1594426E-003	1,3569588E-002
26/08/2025 19:40:08.6258	9,7761012E-004	1,1936134E-002
26/08/2025 19:40:10.9258	9,8867435E-003	1,0765963E-002
26/08/2025 19:40:13.2258	1,3068578E-002	9,8330909E-003
26/08/2025 19:40:15.5258	7,3412773E-003	9,0257023E-003
26/08/2025 19:40:17.8258	9,2503773E-003	8,3093066E-003
26/08/2025 19:40:20.1258	9,8867435E-003	7,6944833E-003
26/08/2025 19:40:22.4258	4,7958097E-003	7,1481145E-003
26/08/2025 19:40:24.7258	3,5230771E-003	6,6145798E-003
26/08/2025 19:40:27.0258	9,2503773E-003	6,1541595E-003
26/08/2025 19:40:29.3258	1,1795843E-002	5,7296474E-003
26/08/2025 19:40:31.6258	1,2432210E-002	5,3114756E-003
26/08/2025 19:40:33.9258	8,6140092E-003	4,9264617E-003
26/08/2025 19:40:36.2258	1,2432210E-002	4,5875926E-003
26/08/2025 19:40:38.5258	7,3412773E-003	4,2722924E-003
26/08/2025 19:40:40.8258	1,1159477E-002	3,9442340E-003
26/08/2025 19:40:43.1258	5,4321769E-003	3,6625881E-003
26/08/2025 19:40:45.4258	9,2503773E-003	3,4117694E-003
26/08/2025 19:40:47.7258	1,2432210E-002	3,1420416E-003
26/08/2025 19:40:50.0258	1,1795843E-002	2,9004291E-003
26/08/2025 19:40:52.3258	6,0685435E-003	2,6776106E-003
26/08/2025 19:40:54.6258	9,2503773E-003	2,4717527E-003
26/08/2025 19:40:56.9258	9,8867435E-003	2,2580258E-003
26/08/2025 19:40:59.2258	8,6140092E-003	2,0608392E-003
26/08/2025 19:41:01.5258	9,2503773E-003	1,8894374E-003
26/08/2025 19:41:03.8258	1,3068578E-002	1,7108542E-003
26/08/2025 19:41:06.1258	1,1795843E-002	1,5482001E-003
26/08/2025 19:41:08.4258	6,7049102E-003	1,3981902E-003
26/08/2025 19:41:10.7258	8,6140092E-003	1,2492116E-003
26/08/2025 19:41:13.0258	9,8867435E-003	1,1075290E-003
26/08/2025 19:41:15.3258	1,1159477E-002	9,8089722E-004
26/08/2025 19:41:17.6258	6,7049102E-003	8,5873489E-004
26/08/2025 19:41:19.9258	1,1795843E-002	7,1980275E-004
26/08/2025 19:41:22.2258	7,9776440E-003	6,1269099E-004
26/08/2025 19:41:24.5258	1,5614044E-002	5,0061318E-004
26/08/2025 19:41:26.8258	5,4321769E-003	3,8899388E-004
26/08/2025 19:41:29.1258	1,1159477E-002	2,9422058E-004
26/08/2025 19:41:31.4258	7,3412773E-003	1,9620032E-004
26/08/2025 19:41:33.7258	6,0685435E-003	1,0585816E-004
26/08/2025 19:41:36.0258	1,5614044E-002	6,6919083E-006
26/08/2025 19:41:38.3258	6,0685435E-003	-7,0089372E-005
26/08/2025 19:41:40.6258	1,0523110E-002	-1,5802494E-004
26/08/2025 19:41:42.9258	1,3068578E-002	-2,4622789E-004
26/08/2025 19:41:45.2258	1,0523110E-002	-3,2728753E-004
26/08/2025 19:41:47.5258	1,1159477E-002	-3,9237970E-004
26/08/2025 19:41:49.8258	5,4321769E-003	-4,6889359E-004
26/08/2025 19:41:52.1258	6,0685435E-003	-5,5197784E-004
26/08/2025 19:41:54.4258	1,0523110E-002	-6,0904806E-004
26/08/2025 19:41:56.7258	1,0523110E-002	-6,8235316E-004
26/08/2025 19:41:59.0258	7,3412773E-003	-7,5474149E-004
26/08/2025 19:42:01.3258	9,2503773E-003	-8,2013925E-004
26/08/2025 19:42:03.6258	7,3412773E-003	-8,7419176E-004
26/08/2025 19:42:05.8260	-2,6484600E+001	-1,3616025E-002
26/08/2025 19:42:08.1260	-2,6484600E+001	-1,5542853E-002
26/08/2025 19:42:10.4260	-2,6478237E+001	-1,6954137E-002
26/08/2025 19:42:12.7260	-2,6483328E+001	-1,8091341E-002
26/08/2025 19:42:15.0260	-2,6485235E+001	-1,9028913E-002
26/08/2025 19:42:17.3260	-2,6482693E+001	-1,9919692E-002
26/08/2025 19:42:19.6260	-2,6489056E+001	-2,0722264E-002
26/08/2025 19:42:21.9260	-2,6479511E+001	-2,1383692E-002
26/08/2025 19:42:24.2260	-2,6489056E+001	-2,2049664E-002
26/08/2025 19:42:26.5260	-2,6485235E+001	-2,2705475E-002
26/08/2025 19:42:28.8260	-2,6489056E+001	-2,3235112E-002
26/08/2025 19:42:31.1260	-2,6485235E+001	-2,3770979E-002
26/08/2025 19:42:33.4260	-2,6480146E+001	-2,4307378E-002
26/08/2025 19:42:35.7260	-2,6489056E+001	-2,4780059E-002
26/08/2025 19:42:38.0260	-2,6485874E+001	-2,5188452E-002
26/08/2025 19:42:40.3260	-2,6484600E+001	-2,5645357E-002
26/08/2025 19:42:42.6260	-2,6494148E+001	-2,6089698E-002
26/08/2025 19:42:44.9260	-2,6483963E+001	-2,6407212E-002
26/08/2025 19:42:47.2260	-2,6480783E+001	-2,6803724E-002
26/08/2025 19:42:49.5260	-2,6488420E+001	-2,7186027E-002
26/08/2025 19:42:51.8260	-2,6482054E+001	-2,7480317E-002
26/08/2025 19:42:54.1260	-2,6487148E+001	-2,7791301E-002
26/08/2025 19:42:56.4260	-2,6485235E+001	-2,8133072E-002
26/08/2025 19:42:58.7260	-2,6487148E+001	-2,8442373E-002
26/08/2025 19:43:01.0260	-2,6485874E+001	-2,8668363E-002
26/08/2025 19:43:03.3260	-2,6487783E+001	-2,8984541E-002
26/08/2025 19:43:05.6260	-2,6486509E+001	-2,9274821E-002
26/08/2025 19:43:07.9260	-2,6478237E+001	-2,9450117E-002
26/08/2025 19:43:10.2260	-2,6481419E+001	-2,9703841E-002
26/08/2025 19:43:12.5260	-2,6490330E+001	-2,9961459E-002
26/08/2025 19:43:14.8260	-2,6480783E+001	-3,0173849E-002
26/08/2025 19:43:17.1260	-2,6485235E+001	-3,0352661E-002
26/08/2025 19:43:19.4260	-2,6480783E+001	-3,0606650E-002
26/08/2025 19:43:21.7260	-2,6484600E+001	-3,0816710E-002
26/08/2025 19:43:24.0260	-2,6479511E+001	-3,0934939E-002
26/08/2025 19:43:26.3260	-2,6482693E+001	-3,1155389E-002
26/08/2025 19:43:28.6260	-2,6482693E+001	-3,1380538E-002
26/08/2025 19:43:30.9260	-2,6483963E+001	-3,1496473E-002
26/08/2025 19:43:33.2260	-2,6475056E+001	-3,1663444E-002
26/08/2025 19:43:35.5260	-2,6478237E+001	-3,1880073E-002
26/08/2025 19:43:37.8260	-2,6474419E+001	-3,2025006E-002
26/08/2025 19:43:40.1260	-2,6484600E+001	-3,2127570E-002
26/08/2025 19:43:42.4260	-2,6487148E+001	-3,2323383E-002
26/08/2025 19:43:44.7260	-2,6482693E+001	-3,2511361E-002
26/08/2025 19:43:47.0260	-2,6490330E+001	-3,2584362E-002
26/08/2025 19:43:49.3260	-2,6483328E+001	-3,2745831E-002
26/08/2025 19:43:51.6260	-2,6483963E+001	-3,2928195E-002
26/08/2025 19:43:53.9260	-2,6485874E+001	-3,3014029E-002
26/08/2025 19:43:56.2260	-2,6481419E+001	-3,3123665E-002
26/08/2025 19:43:58.5260	-2,6479511E+001	-3,3301596E-002
26/08/2025 19:44:00.8260	-2,6484600E+001	-3,3430941E-002
26/08/2025 19:44:03.1260	-2,6487783E+001	-3,3498019E-002
26/08/2025 19:44:05.3262	5,3011597E+001	2,9378647E-003
26/08/2025 19:44:07.6262	5,3016052E+001	9,3382141E-003
26/08/2025 19:44:09.9262	5,3012230E+001	1,3373013E-002
26/08/2025 19:44:12.2262	5,3008415E+001	1,6617384E-002
26/08/2025 19:44:14.5262	5,3016685E+001	1,9409090E-002
26/08/2025 19:44:16.8262	5,3013508E+001	2,1764595E-002
26/08/2025 19:44:19.1262	5,3014145E+001	2,3847047E-002
26/08/2025 19:44:21.4262	5,3008415E+001	2,5805160E-002
26/08/2025 19:44:23.7262	5,3012230E+001	2,7583698E-002
26/08/2025 19:44:26.0262	5,3015415E+001	2,9113784E-002
26/08/2025 19:44:28.3262	5,3022411E+001	3,0649526E-002
26/08/2025 19:44:30.6262	5,3009686E+001	3,2122083E-002
26/08/2025 19:44:32.9262	5,3009686E+001	3,3321284E-002
26/08/2025 19:44:35.2262	5,3016685E+001	3,4565024E-002
26/08/2025 19:44:37.5262	5,3008415E+001	3,5778936E-002
26/08/2025 19:44:39.8262	5,3013508E+001	3,6835499E-002
26/08/2025 19:44:42.1262	5,3014778E+001	3,7829146E-002
26/08/2025 19:44:44.4262	5,3010323E+001	3,8847093E-002
26/08/2025 19:44:46.7262	5,3010960E+001	3,9819460E-002
26/08/2025 19:44:49.0262	5,3011597E+001	4,0582996E-002
26/08/2025 19:44:51.3262	5,3010323E+001	4,1488554E-002
26/08/2025 19:44:53.6262	5,3017960E+001	4,2335290E-002
26/08/2025 19:44:55.9262	5,3016052E+001	4,2973071E-002
26/08/2025 19:44:58.2262	5,3010960E+001	4,3700546E-002
26/08/2025 19:45:00.5262	5,3017960E+001	4,4435583E-002
26/08/2025 19:45:02.8262	5,3013508E+001	4,5074433E-002
26/08/2025 19:45:05.1262	5,3010323E+001	4,5629170E-002
26/08/2025 19:45:07.4262	5,3016052E+001	4,6297662E-002
26/08/2025 19:45:09.7262	5,3012867E+001	4,6925128E-002
26/08/2025 19:45:12.0262	5,3014778E+001	4,7327332E-002
26/08/2025 19:45:14.3262	5,3016685E+001	4,7908697E-002
26/08/2025 19:45:16.6262	5,3012230E+001	4,8473287E-002
26/08/2025 19:45:18.9262	5,3016685E+001	4,8873845E-002
26/08/2025 19:45:21.2262	5,3017960E+001	4,9322043E-002
26/08/2025 19:45:23.5262	5,3017323E+001	4,9867418E-002
26/08/2025 19:45:25.8262	5,3009686E+001	5,0284483E-002
26/08/2025 19:45:28.1262	5,3014145E+001	5,0598789E-002
26/08/2025 19:45:30.4262	5,3014145E+001	5,1085263E-002
26/08/2025 19:45:32.7262	5,3010960E+001	5,1545110E-002
26/08/2025 19:45:35.0262	5,3008415E+001	5,1794019E-002
26/08/2025 19:45:37.3262	5,3012867E+001	5,2205350E-002
26/08/2025 19:45:39.6262	5,3021141E+001	5,2642353E-002
26/08/2025 19:45:41.9262	5,3016685E+001	5,2922279E-002
26/08/2025 19:45:44.2262	5,3010323E+001	5,3210918E-002
26/08/2025 19:45:46.5262	5,3014145E+001	5,3627025E-002
26/08/2025 19:45:48.8262	5,3021778E+001	5,3989731E-002
26/08/2025 19:45:51.1262	5,3008415E+001	5,4185048E-002
26/08/2025 19:45:53.4262	5,3010960E+001	5,4574799E-002
26/08/2025 19:45:55.7262	5,3010960E+001	5,4957405E-002
26/08/2025 19:45:58.0262	5,3016052E+001	5,5126324E-002
26/08/2025 19:46:00.3262	5,3010323E+001	5,5431768E-002
26/08/2025 19:46:02.6262	5,3013508E+001	5,5807881E-002
26/08/2025 19:46:04.8266	6,7049102E-003	3,2804251E-002
26/08/2025 19:46:07.1266	1,5614044E-002	2,8084420E-002
26/08/2025 19:46:09.4266	1,3068578E-002	2,5294317E-002
26/08/2025 19:46:11.7266	1,2432210E-002	2,3102576E-002
26/08/2025 19:46:14.0266	1,0523110E-002	2,1375339E-002
26/08/2025 19:46:16.3266	1,1795843E-002	1,9902593E-002
26/08/2025 19:46:18.6266	4,7958097E-003	1,8622866E-002
26/08/2025 19:46:20.9266	1,1159477E-002	1,7406741E-002
26/08/2025 19:46:23.2266	1,3704944E-002	1,6395291E-002
26/08/2025 19:46:25.5266	9,8867435E-003	1,5468530E-002
26/08/2025 19:46:27.8266	8,6140092E-003	1,4547575E-002
26/08/2025 19:46:30.1266	1,4977678E-002	1,3745192E-002
26/08/2025 19:46:32.4266	1,0523110E-002	1,3027306E-002
26/08/2025 19:46:34.7266	1,1795843E-002	1,2333027E-002
26/08/2025 19:46:37.0266	1,3068578E-002	1,1660981E-002
26/08/2025 19:46:39.3266	7,3412773E-003	1,1081875E-002
26/08/2025 19:46:41.6266	2,2503431E-003	1,0526605E-002
26/08/2025 19:46:43.9266	3,5230771E-003	9,9591492E-003
26/08/2025 19:46:46.2266	1,6139771E-003	9,4783688E-003
26/08/2025 19:46:48.5266	9,8867435E-003	9,0227993E-003
26/08/2025 19:46:50.8266	7,3412773E-003	8,5749859E-003
26/08/2025 19:46:53.1266	1,2432210E-002	8,1655998E-003
26/08/2025 19:46:55.4266	4,7958097E-003	7,7868886E-003
26/08/2025 19:46:57.7266	1,2432210E-002	7,4234954E-003
26/08/2025 19:47:00.0266	1,8795876E-002	7,0587648E-003
26/08/2025 19:47:02.3266	6,7049102E-003	6,7448406E-003
26/08/2025 19:47:04.6266	1,1795843E-002	6,4417263E-003
26/08/2025 19:47:06.9266	5,4321769E-003	6,1488119E-003
26/08/2025 19:47:09.2266	6,7049102E-003	5,8660959E-003
26/08/2025 19:47:11.5266	1,6139771E-003	5,6222677E-003
26/08/2025 19:47:13.8266	8,6140092E-003	5,3665596E-003
26/08/2025 19:47:16.1266	7,9776440E-003	5,1236865E-003
26/08/2025 19:47:18.4266	6,0685435E-003	4,9192798E-003
26/08/2025 19:47:20.7266	7,3412773E-003	4,7017331E-003
26/08/2025 19:47:23.0266	1,0523110E-002	4,4986256E-003
26/08/2025 19:47:25.3266	5,4321769E-003	4,3053734E-003
26/08/2025 19:47:27.6266	1,3704944E-002	4,1250330E-003
26/08/2025 19:47:29.9266	7,3412773E-003	3,9343406E-003
26/08/2025 19:47:32.2266	1,1795843E-002	3,7602647E-003
26/08/2025 19:47:34.5266	1,2432210E-002	3,6119737E-003
26/08/2025 19:47:36.8266	7,3412773E-003	3,4525285E-003
26/08/2025 19:47:39.1266	6,7049102E-003	3,3010668E-003
26/08/2025 19:47:41.4266	9,8867435E-003	3,1559081E-003
26/08/2025 19:47:43.7266	9,2503773E-003	3,0112080E-003
26/08/2025 19:47:46.0266	7,9776440E-003	2,8721232E-003
26/08/2025 19:47:48.3266	1,1795843E-002	2,7416332E-003
26/08/2025 19:47:50.6266	1,1795843E-002	2,6145810E-003
26/08/2025 19:47:52.9266	7,3412773E-003	2,4911198E-003
26/08/2025 19:47:55.2266	1,4977678E-002	2,3760244E-003
26/08/2025 19:47:57.5266	1,1159477E-002	2,2576055E-003
26/08/2025 19:47:59.8266	1,4977678E-002	2,1369329E-003
26/08/2025 19:48:02.1266	1,3068578E-002	2,0277202E-003
26/08/2025 19:48:04.3268	-5,2979729E+001	-1,8395197E-002
26/08/2025 19:48:06.6268	-5,2977180E+001	-2,5166258E-002
26/08/2025 19:48:08.9268	-5,2975266E+001	-2,8440846E-002
26/08/2025 19:48:11.2268	-5,2979729E+001	-3,1001138E-002
26/08/2025 19:48:13.5268	-5,2979088E+001	-3,3173781E-002
26/08/2025 19:48:15.8268	-5,2979088E+001	-3,5033647E-002
26/08/2025 19:48:18.1268	-5,2980999E+001	-3,6619846E-002
26/08/2025 19:48:20.4268	-5,2976543E+001	-3,8168423E-002
26/08/2025 19:48:22.7268	-5,2979729E+001	-3,9615732E-002
26/08/2025 19:48:25.0268	-5,2976543E+001	-4,0796019E-002
26/08/2025 19:48:27.3268	-5,2973358E+001	-4,2043623E-002
26/08/2025 19:48:29.6268	-5,2972088E+001	-4,3219291E-002
26/08/2025 19:48:31.9268	-5,2973358E+001	-4,4204727E-002
26/08/2025 19:48:34.2268	-5,2977180E+001	-4,5172438E-002
26/08/2025 19:48:36.5268	-5,2975266E+001	-4,6159558E-002
26/08/2025 19:48:38.8268	-5,2975906E+001	-4,7072146E-002
26/08/2025 19:48:41.1268	-5,2975266E+001	-4,7843702E-002
26/08/2025 19:48:43.4268	-5,2975266E+001	-4,8725653E-002
26/08/2025 19:48:45.7268	-5,2973358E+001	-4,9556844E-002
26/08/2025 19:48:48.0268	-5,2970181E+001	-5,0165404E-002
26/08/2025 19:48:50.3268	-5,2974636E+001	-5,0906166E-002
26/08/2025 19:48:52.6268	-5,2970818E+001	-5,1624589E-002
26/08/2025 19:48:54.9268	-5,2982906E+001	-5,2235518E-002
26/08/2025 19:48:57.2268	-5,2977814E+001	-5,2816801E-002
26/08/2025 19:48:59.5268	-5,2979088E+001	-5,3475704E-002
26/08/2025 19:49:01.8268	-5,2985451E+001	-5,4064363E-002
26/08/2025 19:49:04.1268	-5,2977180E+001	-5,4491509E-002
26/08/2025 19:49:06.4268	-5,2976543E+001	-5,5084482E-002
26/08/2025 19:49:08.7268	-5,2978451E+001	-5,5651858E-002
26/08/2025 19:49:11.0268	-5,2975266E+001	-5,6033514E-002
26/08/2025 19:49:13.3268	-5,2977180E+001	-5,6528963E-002
26/08/2025 19:49:15.6268	-5,2980999E+001	-5,7060432E-002
26/08/2025 19:49:17.9268	-5,2977814E+001	-5,7457291E-002
26/08/2025 19:49:20.2268	-5,2975266E+001	-5,7804067E-002
26/08/2025 19:49:22.5268	-5,2984814E+001	-5,8305323E-002
26/08/2025 19:49:24.8268	-5,2975266E+001	-5,8759134E-002
26/08/2025 19:49:27.1268	-5,2977814E+001	-5,9013847E-002
26/08/2025 19:49:29.4268	-5,2969543E+001	-5,9449363E-002
26/08/2025 19:49:31.7268	-5,2980358E+001	-5,9897061E-002
26/08/2025 19:49:34.0268	-5,2975266E+001	-6,0142342E-002
26/08/2025 19:49:36.3268	-5,2976543E+001	-6,0484841E-002
26/08/2025 19:49:38.6268	-5,2972088E+001	-6,0901638E-002
26/08/2025 19:49:40.9268	-5,2979088E+001	-6,1235081E-002
26/08/2025 19:49:43.2268	-5,2980999E+001	-6,1465885E-002
26/08/2025 19:49:45.5268	-5,2974636E+001	-6,1861288E-002
26/08/2025 19:49:47.8268	-5,2979729E+001	-6,2217727E-002
26/08/2025 19:49:50.1268	-5,2977814E+001	-6,2380955E-002
26/08/2025 19:49:52.4268	-5,2976543E+001	-6,2712573E-002
26/08/2025 19:49:54.7268	-5,2978451E+001	-6,3103579E-002
26/08/2025 19:49:57.0268	-5,2979088E+001	-6,3304357E-002
26/08/2025 19:49:59.3268	-5,2978451E+001	-6,3566901E-002
26/08/2025 19:50:01.6268	-5,2975266E+001	-6,3909590E-002
26/08/2025 19:50:03.9268	-5,2980358E+001	-6,4187609E-002
26/08/2025 19:50:06.1270	7,9508629E+001	2,1311648E-003
26/08/2025 19:50:08.4270	7,9507347E+001	1,0953142E-002
26/08/2025 19:50:10.7270	7,9507347E+001	1,7366059E-002
26/08/2025 19:50:13.0270	7,9510536E+001	2,2313792E-002
26/08/2025 19:50:15.3270	7,9512444E+001	2,6609723E-002
26/08/2025 19:50:17.6270	7,9516266E+001	3,0443667E-002
26/08/2025 19:50:19.9270	7,9510536E+001	3,3797443E-002
26/08/2025 19:50:22.2270	7,9509903E+001	3,6810860E-002
26/08/2025 19:50:24.5270	7,9515625E+001	3,9657496E-002
26/08/2025 19:50:26.8270	7,9513718E+001	4,2332888E-002
26/08/2025 19:50:29.1270	7,9506088E+001	4,4629563E-002
26/08/2025 19:50:31.4270	7,9521362E+001	4,6950798E-002
26/08/2025 19:50:33.7270	7,9507996E+001	4,9162790E-002
26/08/2025 19:50:36.0270	7,9507347E+001	5,1019102E-002
26/08/2025 19:50:38.3270	7,9514359E+001	5,2895658E-002
26/08/2025 19:50:40.6270	7,9511810E+001	5,4742835E-002
26/08/2025 19:50:42.9270	7,9509262E+001	5,6396995E-002
26/08/2025 19:50:45.2270	7,9509903E+001	5,7906799E-002
26/08/2025 19:50:47.5270	7,9507996E+001	5,9510879E-002
26/08/2025 19:50:49.8270	7,9508629E+001	6,1013691E-002
26/08/2025 19:50:52.1270	7,9511177E+001	6,2199026E-002
26/08/2025 19:50:54.4269	7,9514359E+001	6,3552402E-002
26/08/2025 19:50:56.7270	7,9511177E+001	6,4888358E-002
26/08/2025 19:50:59.0269	7,9511177E+001	6,5940492E-002
26/08/2025 19:51:01.3270	7,9512444E+001	6,7050226E-002
26/08/2025 19:51:03.6269	7,9516266E+001	6,8201788E-002
26/08/2025 19:51:05.9269	7,9511177E+001	6,9205031E-002
26/08/2025 19:51:08.2269	7,9508629E+001	7,0050888E-002
26/08/2025 19:51:10.5269	7,9511810E+001	7,1085714E-002
26/08/2025 19:51:12.8269	7,9511177E+001	7,2085701E-002
26/08/2025 19:51:15.1269	7,9509903E+001	7,2752327E-002
26/08/2025 19:51:17.4269	7,9517540E+001	7,3649600E-002
26/08/2025 19:51:19.7269	7,9506088E+001	7,4565858E-002
26/08/2025 19:51:22.0269	7,9514992E+001	7,5207181E-002
26/08/2025 19:51:24.3269	7,9509262E+001	7,5915597E-002
26/08/2025 19:51:26.6269	7,9512444E+001	7,6759771E-002
26/08/2025 19:51:28.9269	7,9510536E+001	7,7491865E-002
26/08/2025 19:51:31.2269	7,9508629E+001	7,8014597E-002
26/08/2025 19:51:33.5269	7,9511177E+001	7,8773126E-002
26/08/2025 19:51:35.8269	7,9507347E+001	7,9530813E-002
26/08/2025 19:51:38.1269	7,9506721E+001	7,9959184E-002
26/08/2025 19:51:40.4269	7,9513718E+001	8,0619656E-002
26/08/2025 19:51:42.7269	7,9507347E+001	8,1340984E-002
26/08/2025 19:51:45.0269	7,9506088E+001	8,1847087E-002
26/08/2025 19:51:47.3269	7,9507347E+001	8,2376041E-002
26/08/2025 19:51:49.6269	7,9506721E+001	8,3038412E-002
26/08/2025 19:51:51.9269	7,9514359E+001	8,3637275E-002
26/08/2025 19:51:54.2269	7,9513084E+001	8,4005214E-002
26/08/2025 19:51:56.5269	7,9503532E+001	8,4633142E-002
26/08/2025 19:51:58.8269	7,9512444E+001	8,5303351E-002
26/08/2025 19:52:01.1269	7,9512444E+001	8,5640237E-002
26/08/2025 19:52:03.4269	7,9511177E+001	8,6193562E-002
26/08/2025 19:52:05.6273	1,3068578E-002	4,7857087E-002
26/08/2025 19:52:07.9273	1,3704944E-002	4,1845072E-002
26/08/2025 19:52:10.2273	8,6140092E-003	3,8044441E-002
26/08/2025 19:52:12.5273	7,9776440E-003	3,5094932E-002
26/08/2025 19:52:14.8273	1,2432210E-002	3,2575015E-002
26/08/2025 19:52:17.1273	9,8867435E-003	3,0419717E-002
26/08/2025 19:52:19.4273	5,4321769E-003	2,8606340E-002
26/08/2025 19:52:21.7273	1,1795843E-002	2,6956573E-002
26/08/2025 19:52:24.0273	7,9776440E-003	2,5356239E-002
26/08/2025 19:52:26.3273	1,3704944E-002	2,4029376E-002
26/08/2025 19:52:28.6273	7,9776440E-003	2,2803588E-002
26/08/2025 19:52:30.9273	1,1795843E-002	2,1581313E-002
26/08/2025 19:52:33.2273	8,6140092E-003	2,0506795E-002
26/08/2025 19:52:35.5273	7,3412773E-003	1,9540001E-002
26/08/2025 19:52:37.8273	1,6886778E-002	1,8607011E-002
26/08/2025 19:52:40.1273	1,1159477E-002	1,7680634E-002
26/08/2025 19:52:42.4273	9,2503773E-003	1,6908504E-002
26/08/2025 19:52:44.7273	1,1795843E-002	1,6161280E-002
26/08/2025 19:52:47.0273	2,8867100E-003	1,5405272E-002
26/08/2025 19:52:49.3273	1,4977678E-002	1,4756030E-002
26/08/2025 19:52:51.6273	4,7958097E-003	1,4138037E-002
26/08/2025 19:52:53.9273	1,1795843E-002	1,3515612E-002
26/08/2025 19:52:56.2273	8,6140092E-003	1,2962252E-002
26/08/2025 19:52:58.5273	7,3412773E-003	1,2461646E-002
26/08/2025 19:53:00.8273	9,8867435E-003	1,1965891E-002
26/08/2025 19:53:03.1273	1,3704944E-002	1,1472696E-002
26/08/2025 19:53:05.4273	1,5614044E-002	1,1057885E-002
26/08/2025 19:53:07.7273	9,8867435E-003	1,0646551E-002
26/08/2025 19:53:10.0273	9,8867435E-003	1,0223681E-002
26/08/2025 19:53:12.3273	1,0523110E-002	9,8616257E-003
26/08/2025 19:53:14.6273	1,2432210E-002	9,5238648E-003
26/08/2025 19:53:16.9273	1,2432210E-002	9,1692954E-003
26/08/2025 19:53:19.2273	7,9776440E-003	8,8562109E-003
26/08/2025 19:53:21.5273	9,2503773E-003	8,5676508E-003
26/08/2025 19:53:23.8273	5,4321769E-003	8,2743540E-003
26/08/2025 19:53:26.1273	8,6140092E-003	7,9833111E-003
26/08/2025 19:53:28.4273	8,6140092E-003	7,7295890E-003
26/08/2025 19:53:30.7273	4,7958097E-003	7,4895043E-003
26/08/2025 19:53:33.0273	7,9776440E-003	7,2183632E-003
26/08/2025 19:53:35.3273	1,3068578E-002	7,0079211E-003
26/08/2025 19:53:37.6273	1,1795843E-002	6,7870896E-003
26/08/2025 19:53:39.9273	1,1159477E-002	6,5416568E-003
26/08/2025 19:53:42.2273	9,8867435E-003	6,3446993E-003
26/08/2025 19:53:44.5273	1,2432210E-002	6,1402167E-003
26/08/2025 19:53:46.8273	1,3704944E-002	5,9554451E-003
26/08/2025 19:53:49.1273	7,3412773E-003	5,7466459E-003
26/08/2025 19:53:51.4273	7,9776440E-003	5,5766571E-003
26/08/2025 19:53:53.7273	9,2503773E-003	5,4026581E-003
26/08/2025 19:53:56.0273	7,3412773E-003	5,2112015E-003
26/08/2025 19:53:58.3273	6,7049102E-003	5,0603133E-003
26/08/2025 19:54:00.6273	6,7049102E-003	4,8925402E-003
26/08/2025 19:54:02.9273	6,7049102E-003	4,7314144E-003
26/08/2025 19:54:05.1275	-7,9478027E+001	-3,0980321E-002
26/08/2025 19:54:07.4275	-7,9474213E+001	-3,7850678E-002
26/08/2025 19:54:09.7275	-7,9473579E+001	-4,2481005E-002
26/08/2025 19:54:12.0275	-7,9476120E+001	-4,5955572E-002
26/08/2025 19:54:14.3275	-7,9467216E+001	-4,8998058E-002
26/08/2025 19:54:16.6275	-7,9473579E+001	-5,1736780E-002
26/08/2025 19:54:18.9275	-7,9479301E+001	-5,4169141E-002
26/08/2025 19:54:21.2275	-7,9472939E+001	-5,6291897E-002
26/08/2025 19:54:23.5275	-7,9470398E+001	-5,8417819E-002
26/08/2025 19:54:25.8275	-7,9469749E+001	-6,0398243E-002
26/08/2025 19:54:28.1275	-7,9474213E+001	-6,2015273E-002
26/08/2025 19:54:30.4275	-7,9474846E+001	-6,3742392E-002
26/08/2025 19:54:32.7275	-7,9471664E+001	-6,5404758E-002
26/08/2025 19:54:35.0275	-7,9474213E+001	-6,6811383E-002
26/08/2025 19:54:37.3275	-7,9470398E+001	-6,8210527E-002
26/08/2025 19:54:39.6275	-7,9465302E+001	-6,9668688E-002
26/08/2025 19:54:41.9275	-7,9471031E+001	-7,0948221E-002
26/08/2025 19:54:44.2275	-7,9474846E+001	-7,2039388E-002
26/08/2025 19:54:46.5275	-7,9471031E+001	-7,3305331E-002
26/08/2025 19:54:48.8275	-7,9468491E+001	-7,4526347E-002
26/08/2025 19:54:51.1275	-7,9467842E+001	-7,5430758E-002
26/08/2025 19:54:53.4275	-7,9467216E+001	-7,6523110E-002
26/08/2025 19:54:55.7275	-7,9468491E+001	-7,7624060E-002
26/08/2025 19:54:58.0275	-7,9475487E+001	-7,8482799E-002
26/08/2025 19:55:00.3275	-7,9483116E+001	-7,9344004E-002
26/08/2025 19:55:02.6275	-7,9468491E+001	-8,0338076E-002
26/08/2025 19:55:04.9275	-7,9473579E+001	-8,1237935E-002
26/08/2025 19:55:07.2275	-7,9468491E+001	-8,1897415E-002
26/08/2025 19:55:09.5275	-7,9470398E+001	-8,2799725E-002
26/08/2025 19:55:11.8275	-7,9477394E+001	-8,3665416E-002
26/08/2025 19:55:14.1275	-7,9470398E+001	-8,4219992E-002
26/08/2025 19:55:16.4275	-7,9470398E+001	-8,4985673E-002
26/08/2025 19:55:18.7275	-7,9472939E+001	-8,5808299E-002
26/08/2025 19:55:21.0275	-7,9467216E+001	-8,6436495E-002
26/08/2025 19:55:23.3275	-7,9474213E+001	-8,7018579E-002
26/08/2025 19:55:25.6275	-7,9470398E+001	-8,7773740E-002
26/08/2025 19:55:27.9275	-7,9470398E+001	-8,8474251E-002
26/08/2025 19:55:30.2275	-7,9475487E+001	-8,8890813E-002
26/08/2025 19:55:32.5275	-7,9474846E+001	-8,9573026E-002
26/08/2025 19:55:34.8275	-7,9473579E+001	-9,0293244E-002
26/08/2025 19:55:37.1275	-7,9469124E+001	-9,0712406E-002
26/08/2025 19:55:39.4275	-7,9470398E+001	-9,1310918E-002
26/08/2025 19:55:41.7275	-7,9476120E+001	-9,1975935E-002
26/08/2025 19:55:44.0275	-7,9478668E+001	-9,2484146E-002
26/08/2025 19:55:46.3275	-7,9478668E+001	-9,2897348E-002
26/08/2025 19:55:48.6275	-7,9471664E+001	-9,3535781E-002
26/08/2025 19:55:50.9275	-7,9472939E+001	-9,4193496E-002
26/08/2025 19:55:53.2275	-7,9476120E+001	-9,4469488E-002
26/08/2025 19:55:55.5275	-7,9469124E+001	-9,5078014E-002
26/08/2025 19:55:57.8275	-7,9472305E+001	-9,5692642E-002
26/08/2025 19:56:00.1275	-7,9475487E+001	-9,6024752E-002
26/08/2025 19:56:02.4275	-7,9476761E+001	-9,6490748E-002
26/08/2025 19:56:04.6277	1,0601203E+002	-1,6561178E-002
26/08/2025 19:56:06.9277	1,0600631E+002	3,7757356E-003
26/08/2025 19:56:09.2277	1,0601776E+002	1,4450471E-002
26/08/2025 19:56:11.5277	1,0601776E+002	2,2633523E-002
26/08/2025 19:56:13.8277	1,0600949E+002	2,9444708E-002
26/08/2025 19:56:16.1277	1,0601522E+002	3,5051841E-002
26/08/2025 19:56:18.4277	1,0601076E+002	4,0120512E-002
26/08/2025 19:56:20.7277	1,0601457E+002	4,4752907E-002
26/08/2025 19:56:23.0277	1,0601776E+002	4,8908036E-002
26/08/2025 19:56:25.3277	1,0600631E+002	5,2673526E-002
26/08/2025 19:56:27.6277	1,0601394E+002	5,6303829E-002
26/08/2025 19:56:29.9277	1,0601012E+002	5,9699051E-002
26/08/2025 19:56:32.2277	1,0601522E+002	6,2624224E-002
26/08/2025 19:56:34.5277	1,0601203E+002	6,5604828E-002
26/08/2025 19:56:36.8277	1,0601266E+002	6,8458609E-002
26/08/2025 19:56:39.1277	1,0601522E+002	7,0886582E-002
26/08/2025 19:56:41.4277	1,0600568E+002	7,3357671E-002
26/08/2025 19:56:43.7277	1,0601648E+002	7,5800776E-002
26/08/2025 19:56:46.0277	1,0601713E+002	7,7969521E-002
26/08/2025 19:56:48.3277	1,0601266E+002	7,9959489E-002
26/08/2025 19:56:50.6277	1,0601394E+002	8,2050040E-002
26/08/2025 19:56:52.9277	1,0601394E+002	8,4067434E-002
26/08/2025 19:56:55.2277	1,0601266E+002	8,5662961E-002
26/08/2025 19:56:57.5277	1,0601140E+002	8,7475114E-002
26/08/2025 19:56:59.8277	1,0601394E+002	8,9271642E-002
26/08/2025 19:57:02.1277	1,0601331E+002	9,0669744E-002
26/08/2025 19:57:04.4277	1,0601522E+002	9,2166334E-002
26/08/2025 19:57:06.7277	1,0600949E+002	9,3730725E-002
26/08/2025 19:57:09.0277	1,0600949E+002	9,5119126E-002
26/08/2025 19:57:11.3277	1,0601713E+002	9,6306071E-002
26/08/2025 19:57:13.6277	1,0601585E+002	9,7705781E-002
26/08/2025 19:57:15.9277	1,0601713E+002	9,9073328E-002
26/08/2025 19:57:18.2277	1,0601140E+002	9,9995777E-002
26/08/2025 19:57:20.5277	1,0601522E+002	1,0122843E-001
26/08/2025 19:57:22.8277	1,0601140E+002	1,0249285E-001
26/08/2025 19:57:25.1277	1,0601457E+002	1,0343378E-001
26/08/2025 19:57:27.4277	1,0601585E+002	1,0447223E-001
26/08/2025 19:57:29.7277	1,0601266E+002	1,0562602E-001
26/08/2025 19:57:32.0277	1,0601457E+002	1,0663342E-001
26/08/2025 19:57:34.3277	1,0601394E+002	1,0741540E-001
26/08/2025 19:57:36.6277	1,0601585E+002	1,0850666E-001
26/08/2025 19:57:38.9277	1,0601776E+002	1,0964511E-001
26/08/2025 19:57:41.2277	1,0601076E+002	1,1027820E-001
26/08/2025 19:57:43.5277	1,0601140E+002	1,1130123E-001
26/08/2025 19:57:45.8277	1,0600568E+002	1,1234415E-001
26/08/2025 19:57:48.1277	1,0601266E+002	1,1310730E-001
26/08/2025 19:57:50.4277	1,0602094E+002	1,1392371E-001
26/08/2025 19:57:52.7277	1,0601394E+002	1,1493133E-001
26/08/2025 19:57:55.0277	1,0601648E+002	1,1593709E-001
26/08/2025 19:57:57.3277	1,0601331E+002	1,1650833E-001
26/08/2025 19:57:59.6277	1,0601648E+002	1,1754667E-001
26/08/2025 19:58:01.9277	1,0601648E+002	1,1856171E-001
26/08/2025 19:58:04.2277	1,0601076E+002	1,1914529E-001
26/08/2025 19:58:06.4281	1,1795843E-002	6,2614903E-002
26/08/2025 19:58:08.7281	7,9776440E-003	5,5761851E-002
26/08/2025 19:58:11.0281	7,3412773E-003	5,0813470E-002
26/08/2025 19:58:13.3281	4,7958097E-003	4,7033310E-002
26/08/2025 19:58:15.6281	7,9776440E-003	4,3903995E-002
26/08/2025 19:58:17.9281	2,2503431E-003	4,1096896E-002
26/08/2025 19:58:20.2281	6,7049102E-003	3,8603302E-002
26/08/2025 19:58:22.5281	1,2432210E-002	3,6504954E-002
26/08/2025 19:58:24.8281	1,3704944E-002	3,4555782E-002
26/08/2025 19:58:27.1281	1,4341311E-002	3,2682855E-002
26/08/2025 19:58:29.4281	1,6250411E-002	3,1072740E-002
26/08/2025 19:58:31.7281	1,0523110E-002	2,9604267E-002
26/08/2025 19:58:34.0281	1,1159477E-002	2,8130336E-002
26/08/2025 19:58:36.3281	1,3704944E-002	2,6828071E-002
26/08/2025 19:58:38.6281	1,4977678E-002	2,5669934E-002
26/08/2025 19:58:40.9281	7,3412773E-003	2,4525436E-002
26/08/2025 19:58:43.2281	7,3412773E-003	2,3425896E-002
26/08/2025 19:58:45.5281	9,2503773E-003	2,2475488E-002
26/08/2025 19:58:47.8281	9,2503773E-003	2,1571038E-002
26/08/2025 19:58:50.1281	7,9776440E-003	2,0643702E-002
26/08/2025 19:58:52.4281	-1,5678566E-003	1,9835321E-002
26/08/2025 19:58:54.7281	2,8867100E-003	1,9103991E-002
26/08/2025 19:58:57.0281	8,6140092E-003	1,8348094E-002
26/08/2025 19:58:59.3281	1,1795843E-002	1,7660044E-002
26/08/2025 19:59:01.6281	6,0685435E-003	1,7047703E-002
26/08/2025 19:59:03.9281	1,0523110E-002	1,6425239E-002
26/08/2025 19:59:06.2281	1,4341311E-002	1,5842199E-002
26/08/2025 19:59:08.5281	1,4977678E-002	1,5314700E-002
26/08/2025 19:59:10.8281	7,3412773E-003	1,4833843E-002
26/08/2025 19:59:13.1281	7,9776440E-003	1,4301684E-002
26/08/2025 19:59:15.4281	2,2503431E-003	1,3866666E-002
26/08/2025 19:59:17.7281	6,0685435E-003	1,3446127E-002
26/08/2025 19:59:20.0281	1,7523142E-002	1,3012866E-002
26/08/2025 19:59:22.3281	1,0523110E-002	1,2614978E-002
26/08/2025 19:59:24.6281	1,3068578E-002	1,2253381E-002
26/08/2025 19:59:26.9281	1,5614044E-002	1,1900646E-002
26/08/2025 19:59:29.2281	9,8867435E-003	1,1521820E-002
26/08/2025 19:59:31.5281	5,4321769E-003	1,1214504E-002
26/08/2025 19:59:33.8281	7,9776440E-003	1,0913911E-002
26/08/2025 19:59:36.1281	1,4977678E-002	1,0568204E-002
26/08/2025 19:59:38.4281	9,8867435E-003	1,0286558E-002
26/08/2025 19:59:40.7281	2,8867100E-003	1,0015302E-002
26/08/2025 19:59:43.0281	1,3704944E-002	9,7305626E-003
26/08/2025 19:59:45.3281	7,9776440E-003	9,4601857E-003
26/08/2025 19:59:47.6281	3,4124311E-004	9,2154788E-003
26/08/2025 19:59:49.9281	1,3704944E-002	8,9715738E-003
26/08/2025 19:59:52.2281	9,8867435E-003	8,7049026E-003
26/08/2025 19:59:54.5281	1,6139771E-003	8,4881568E-003
26/08/2025 19:59:56.8281	9,2503773E-003	8,2673635E-003
26/08/2025 19:59:59.1281	6,0685435E-003	8,0434754E-003
26/08/2025 20:00:01.4281	5,4321769E-003	7,8309327E-003
26/08/2025 20:00:03.7281	-9,3149021E-004	7,6297731E-003
26/08/2025 20:00:05.9283	-1,0596806E+002	-4,4046123E-002
26/08/2025 20:00:08.2283	-1,0597825E+002	-5,1385380E-002
26/08/2025 20:00:10.5283	-1,0597825E+002	-5,6950383E-002
26/08/2025 20:00:12.8283	-1,0596742E+002	-6,1612111E-002
26/08/2025 20:00:15.1283	-1,0596933E+002	-6,5404683E-002
26/08/2025 20:00:17.4283	-1,0597507E+002	-6,8892047E-002
26/08/2025 20:00:19.7283	-1,0597570E+002	-7,2176754E-002
26/08/2025 20:00:22.0283	-1,0597443E+002	-7,5080656E-002
26/08/2025 20:00:24.3283	-1,0597251E+002	-7,7651985E-002
26/08/2025 20:00:26.6283	-1,0597189E+002	-8,0291197E-002
26/08/2025 20:00:28.9283	-1,0597124E+002	-8,2795992E-002
26/08/2025 20:00:31.2283	-1,0597060E+002	-8,4803231E-002
26/08/2025 20:00:33.5283	-1,0597443E+002	-8,7019339E-002
26/08/2025 20:00:35.8283	-1,0598016E+002	-8,9189768E-002
26/08/2025 20:00:38.1283	-1,0597633E+002	-9,0942822E-002
26/08/2025 20:00:40.4283	-1,0597697E+002	-9,2756778E-002
26/08/2025 20:00:42.7283	-1,0597060E+002	-9,4634250E-002
26/08/2025 20:00:45.0283	-1,0597570E+002	-9,6355826E-002
26/08/2025 20:00:47.3283	-1,0597570E+002	-9,7806461E-002
26/08/2025 20:00:49.6283	-1,0597443E+002	-9,9487737E-002
26/08/2025 20:00:51.9283	-1,0597443E+002	-1,0112827E-001
26/08/2025 20:00:54.2283	-1,0597189E+002	-1,0231642E-001
26/08/2025 20:00:56.5283	-1,0597633E+002	-1,0377737E-001
26/08/2025 20:00:58.8283	-1,0597379E+002	-1,0526700E-001
26/08/2025 20:01:01.1283	-1,0597379E+002	-1,0645975E-001
26/08/2025 20:01:03.4283	-1,0597379E+002	-1,0766464E-001
26/08/2025 20:01:05.7283	-1,0597060E+002	-1,0902864E-001
26/08/2025 20:01:08.0283	-1,0597251E+002	-1,1025634E-001
26/08/2025 20:01:10.3283	-1,0597570E+002	-1,1119650E-001
26/08/2025 20:01:12.6283	-1,0597189E+002	-1,1245137E-001
26/08/2025 20:01:14.9283	-1,0597633E+002	-1,1373491E-001
26/08/2025 20:01:17.2283	-1,0596933E+002	-1,1452805E-001
26/08/2025 20:01:19.5283	-1,0597124E+002	-1,1567365E-001
26/08/2025 20:01:21.8283	-1,0597443E+002	-1,1685800E-001
26/08/2025 20:01:24.1283	-1,0597507E+002	-1,1776069E-001
26/08/2025 20:01:26.4283	-1,0597633E+002	-1,1865537E-001
26/08/2025 20:01:28.7283	-1,0597379E+002	-1,1977935E-001
26/08/2025 20:01:31.0283	-1,0597060E+002	-1,2090261E-001
26/08/2025 20:01:33.3283	-1,0597443E+002	-1,2155014E-001
26/08/2025 20:01:35.6283	-1,0597379E+002	-1,2266915E-001
26/08/2025 20:01:37.9283	-1,0597379E+002	-1,2377538E-001
26/08/2025 20:01:40.2283	-1,0597697E+002	-1,2443443E-001
26/08/2025 20:01:42.5283	-1,0597697E+002	-1,2538491E-001
26/08/2025 20:01:44.8283	-1,0596806E+002	-1,2643224E-001
26/08/2025 20:01:47.1283	-1,0597888E+002	-1,2736316E-001
26/08/2025 20:01:49.4283	-1,0597124E+002	-1,2805270E-001
26/08/2025 20:01:51.7283	-1,0597189E+002	-1,2915595E-001
26/08/2025 20:01:54.0283	-1,0597888E+002	-1,3018692E-001
26/08/2025 20:01:56.3283	-1,0596997E+002	-1,3070086E-001
26/08/2025 20:01:58.6283	-1,0597379E+002	-1,3173106E-001
26/08/2025 20:02:00.9283	-1,0597251E+002	-1,3274285E-001
26/08/2025 20:02:03.2283	-1,0597570E+002	-1,3347659E-001
26/08/2025 20:02:04.2285	-1,0596933E+002	-1,3378584E-001