File: data/phase_2a/Sergey/1/3.3/02 polarisation/SN50_C5D1E1_lr_0,1MFeCN6_in_1M_KCl_3306mL_symmetric_balanced_4_point_PEIS_10mHz_200kHz_10mV_04_CA_C16.txt
time/s	<I>/mA	Ewe/V
26/08/2025 20:46:45.3859	3,965751215263062E+002	-2,1690065E-003
26/08/2025 20:46:50.3859	1,932273448913570E+002	-2,0735073E-003
26/08/2025 20:46:55.3859	1,381902372283930E+002	-2,0353077E-003
26/08/2025 20:47:00.3859	1,061227612792964E+002	-2,2454057E-003
26/08/2025 20:47:05.3859	8,445043148040770E+001	-2,1117069E-003
26/08/2025 20:47:10.3859	6,863191049652096E+001	-2,2263059E-003
26/08/2025 20:47:15.3859	5,667205731811509E+001	-2,0735073E-003
26/08/2025 20:47:20.3859	4,743994643173210E+001	-2,1117069E-003
26/08/2025 20:47:25.3859	3,955124511795043E+001	-2,0926071E-003
26/08/2025 20:47:30.3859	3,364958541336060E+001	-2,0735073E-003
26/08/2025 20:47:35.3859	2,893930118598934E+001	-2,0544075E-003
26/08/2025 20:47:40.3859	2,511826867675779E+001	-2,0926071E-003
26/08/2025 20:47:45.3859	2,196475073242186E+001	-2,1881063E-003
26/08/2025 20:47:50.3859	1,942939978065488E+001	-2,0926071E-003
26/08/2025 20:47:55.3859	1,740683173408508E+001	-2,0353077E-003
26/08/2025 20:48:00.3859	1,569575232429503E+001	-2,1308069E-003
26/08/2025 20:48:05.3859	1,428768614158631E+001	-2,2072061E-003
26/08/2025 20:48:10.3859	1,313080525550839E+001	-2,1499067E-003
26/08/2025 20:48:15.3859	1,202454370555878E+001	-2,1690065E-003
26/08/2025 20:48:20.3859	1,105177082157135E+001	-2,1308069E-003
26/08/2025 20:48:25.3859	1,017179929218293E+001	-2,1690065E-003
26/08/2025 20:48:30.3859	9,335277724456773E+000	-2,1117069E-003
26/08/2025 20:48:35.3859	8,591060667610167E+000	-2,1117069E-003
26/08/2025 20:48:40.3859	7,890376963424679E+000	-2,1881063E-003
26/08/2025 20:48:45.3859	7,256357064437864E+000	-2,1117069E-003
26/08/2025 20:48:50.3859	6,609541065692895E+000	-2,1499067E-003
26/08/2025 20:48:55.3859	6,019814782238001E+000	-2,0162079E-003
26/08/2025 20:49:00.3859	5,479715836143493E+000	-2,1117069E-003
26/08/2025 20:49:05.3859	4,970164256763457E+000	-2,1499067E-003
26/08/2025 20:49:10.3859	4,416460214156572E+000	-2,0735073E-003
26/08/2025 20:49:15.3859	4,007469982767105E+000	-2,0735073E-003
26/08/2025 20:49:20.3859	3,590147595882407E+000	-2,1881063E-003
26/08/2025 20:49:25.3859	3,180337202215194E+000	-1,9971081E-003
26/08/2025 20:49:30.3859	2,794915584373470E+000	-2,0926071E-003
26/08/2025 20:49:35.3859	2,449581231212612E+000	-2,1308069E-003
26/08/2025 20:49:40.3859	2,110704222106932E+000	-1,9971081E-003
26/08/2025 20:49:45.3859	1,794665635800357E+000	-2,0735073E-003
26/08/2025 20:49:50.3859	1,511444136309620E+000	-2,1499067E-003
26/08/2025 20:49:55.3859	1,220723162293433E+000	-2,1117069E-003
26/08/2025 20:50:00.3859	9,463490757465358E-001	-2,0735073E-003
26/08/2025 20:50:05.3859	6,918836116075511E-001	-2,0735073E-003
26/08/2025 20:50:10.3859	4,442985706091567E-001	-2,2263059E-003
26/08/2025 20:50:15.3859	2,528405308037991E-001	-2,0735073E-003
26/08/2025 20:50:20.3859	3,861919291885318E-002	-2,1499067E-003
26/08/2025 20:50:25.3859	-1,304961701527243E-001	-2,1499067E-003
26/08/2025 20:50:30.3859	-3,046460430026057E-001	-2,2072061E-003
26/08/2025 20:50:35.3859	-4,692024769604215E-001	-2,1308069E-003
26/08/2025 20:50:40.3859	-6,094594593048096E-001	-2,1881063E-003
26/08/2025 20:50:45.3859	-7,322832547307012E-001	-2,2072061E-003
26/08/2025 20:50:50.3859	-8,539578904509545E-001	-2,0162079E-003
26/08/2025 20:50:55.3859	-9,553869427323343E-001	-2,1308069E-003
26/08/2025 20:51:00.3859	-1,046228867387773E+000	-2,1881063E-003
26/08/2025 20:51:05.3859	-1,126982259726525E+000	-2,0735073E-003
26/08/2025 20:51:10.3859	-1,200787408924104E+000	-2,1690065E-003
26/08/2025 20:51:15.3859	-1,267393599867821E+000	-2,0926071E-003
26/08/2025 20:51:20.3859	-1,315450869631771E+000	-2,1308069E-003
26/08/2025 20:51:25.3859	-1,355446232628823E+000	-2,1117069E-003
26/08/2025 20:51:30.3859	-1,396674182319641E+000	-2,0926071E-003
26/08/2025 20:51:35.3859	-1,422954782104494E+000	-2,0735073E-003
26/08/2025 20:51:40.3859	-1,445428985953331E+000	-2,1308069E-003
26/08/2025 20:51:45.3859	-1,465828806781769E+000	-2,0353077E-003
26/08/2025 20:51:50.3859	-1,478553314590455E+000	-2,0735073E-003
26/08/2025 20:51:55.3859	-1,481749323391915E+000	-2,0926071E-003
26/08/2025 20:52:00.3859	-1,480848077034950E+000	-2,0926071E-003
26/08/2025 20:52:05.3859	-1,486595848870278E+000	-2,1881063E-003
26/08/2025 20:52:10.3859	-1,483283803224563E+000	-2,1499067E-003
26/08/2025 20:52:15.3859	-1,473299931931500E+000	-2,0353077E-003
26/08/2025 20:52:20.3859	-1,463372223210335E+000	-2,0926071E-003
26/08/2025 20:52:25.3859	-1,447997704339027E+000	-1,9971081E-003
26/08/2025 20:52:30.3859	-1,440146666240693E+000	-2,1308069E-003
26/08/2025 20:52:35.3859	-1,436941605830194E+000	-2,1499067E-003
26/08/2025 20:52:40.3859	-1,409210806989670E+000	-2,1690065E-003
26/08/2025 20:52:45.3859	-1,395331067085266E+000	-2,0162079E-003
26/08/2025 20:52:50.3859	-1,382715657186512E+000	-2,0926071E-003
26/08/2025 20:52:55.3859	-1,367985516333579E+000	-2,2454057E-003
26/08/2025 20:53:00.3859	-1,344227039194109E+000	-2,1690065E-003
26/08/2025 20:53:05.3859	-1,325285947966577E+000	-1,9780083E-003
26/08/2025 20:53:10.3859	-1,312796314811710E+000	-2,0926071E-003
26/08/2025 20:53:15.3859	-1,292067684865000E+000	-2,1881063E-003
26/08/2025 20:53:20.3859	-1,270900385475159E+000	-2,0735073E-003
26/08/2025 20:53:25.3859	-1,259349082374575E+000	-2,1308069E-003
26/08/2025 20:53:30.3859	-1,245643769645692E+000	-2,0353077E-003
26/08/2025 20:53:35.3859	-1,226712739515307E+000	-2,0735073E-003
26/08/2025 20:53:40.3859	-1,210912978124618E+000	-2,1117069E-003
26/08/2025 20:53:45.3859	-1,200736676144601E+000	-2,1499067E-003
26/08/2025 20:53:50.3859	-1,188865338587760E+000	-2,1499067E-003
26/08/2025 20:53:55.3859	-1,164623866963387E+000	-2,0353077E-003
26/08/2025 20:54:00.3859	-1,155384872984888E+000	-2,2072061E-003
26/08/2025 20:54:05.3859	-1,146296156716347E+000	-2,0735073E-003
26/08/2025 20:54:10.3859	-1,127527010583878E+000	-2,1117069E-003
26/08/2025 20:54:15.3859	-1,120445497322083E+000	-2,1499067E-003
26/08/2025 20:54:20.3859	-1,110735010457041E+000	-2,1881063E-003
26/08/2025 20:54:25.3859	-1,099295284795762E+000	-2,2454057E-003
26/08/2025 20:54:30.3859	-1,086835885405542E+000	-2,1117069E-003
26/08/2025 20:54:35.3859	-1,079974578523636E+000	-2,1499067E-003
26/08/2025 20:54:40.3859	-1,080490133905410E+000	-2,0926071E-003
26/08/2025 20:54:45.3859	-1,066311117672921E+000	-2,0544075E-003
26/08/2025 20:54:50.3859	-1,053791290950775E+000	-2,0544075E-003
26/08/2025 20:54:55.3859	-1,054998033499718E+000	-2,1499067E-003
26/08/2025 20:55:00.3859	-1,048079686951642E+000	-2,1499067E-003
26/08/2025 20:55:05.3859	-1,039348581266404E+000	-2,0735073E-003
26/08/2025 20:55:10.3859	-1,035700590348245E+000	-2,1117069E-003
26/08/2025 20:55:15.3859	-1,024776081812384E+000	-2,1117069E-003
26/08/2025 20:55:20.3859	-1,017575335574154E+000	-2,2454057E-003
26/08/2025 20:55:25.3859	-1,017225194454195E+000	-2,1881063E-003
26/08/2025 20:55:30.3859	-1,011330644023420E+000	-2,0926071E-003
26/08/2025 20:55:35.3859	-1,005024431526661E+000	-2,0353077E-003
26/08/2025 20:55:40.3859	-1,005874271953106E+000	-2,0735073E-003
26/08/2025 20:55:45.3859	-9,968893266558663E-001	-2,0544075E-003
26/08/2025 20:55:50.3859	-9,953169188141824E-001	-2,1308069E-003
26/08/2025 20:55:55.3859	-9,887928569674536E-001	-2,1499067E-003
26/08/2025 20:56:00.3859	-9,879358787775061E-001	-2,1690065E-003
26/08/2025 20:56:05.3859	-9,866266883730888E-001	-2,1690065E-003
26/08/2025 20:56:10.3859	-9,812097416400931E-001	-2,0735073E-003
26/08/2025 20:56:15.3859	-9,829800530314454E-001	-2,1117069E-003
26/08/2025 20:56:20.3859	-9,846114890575421E-001	-2,1308069E-003
26/08/2025 20:56:25.3859	-9,761869790196425E-001	-2,1881063E-003
26/08/2025 20:56:30.3859	-9,718185587286952E-001	-2,0926071E-003
26/08/2025 20:56:35.3859	-9,740051860332493E-001	-2,0926071E-003
26/08/2025 20:56:40.3859	-9,713849850177780E-001	-2,1117069E-003
26/08/2025 20:56:45.3859	-9,711943452119840E-001	-2,1881063E-003
26/08/2025 20:56:50.3859	-9,697933489799517E-001	-2,1499067E-003
26/08/2025 20:56:55.3859	-9,704245601534840E-001	-2,0735073E-003
26/08/2025 20:57:00.3859	-9,638345807552340E-001	-2,1308069E-003
26/08/2025 20:57:05.3859	-9,669068629384050E-001	-2,0735073E-003
26/08/2025 20:57:10.3859	-9,610640311241161E-001	-2,0735073E-003
26/08/2025 20:57:15.3859	-9,626142060518283E-001	-2,1499067E-003
26/08/2025 20:57:20.3859	-9,628116623640057E-001	-2,1308069E-003
26/08/2025 20:57:25.3859	-9,616254150390624E-001	-2,0162079E-003
26/08/2025 20:57:30.3859	-9,555927768588077E-001	-2,1308069E-003
26/08/2025 20:57:35.3859	-9,572275150418292E-001	-2,0735073E-003
26/08/2025 20:57:40.3859	-9,531307849645614E-001	-2,1690065E-003
26/08/2025 20:57:45.3859	-9,513595815777780E-001	-2,0926071E-003
26/08/2025 20:57:50.3859	-9,456416616916652E-001	-2,0735073E-003
26/08/2025 20:57:55.3859	-9,501970181465147E-001	-2,1117069E-003
26/08/2025 20:58:00.3859	-9,470946186065674E-001	-2,1308069E-003
26/08/2025 20:58:05.3859	-9,442770721554759E-001	-2,1117069E-003
26/08/2025 20:58:10.3859	-9,447101788401611E-001	-2,1308069E-003
26/08/2025 20:58:15.3859	-9,476948014736202E-001	-2,1881063E-003
26/08/2025 20:58:20.3859	-9,442817779779435E-001	-2,0735073E-003
26/08/2025 20:58:25.3859	-9,423095386028297E-001	-2,1308069E-003
26/08/2025 20:58:30.3859	-9,428519223451630E-001	-2,0544075E-003
26/08/2025 20:58:35.3859	-9,397131851315499E-001	-2,1308069E-003
26/08/2025 20:58:40.3859	-9,431533063411717E-001	-2,1499067E-003
26/08/2025 20:58:45.3859	-9,355789861679096E-001	-2,0735073E-003
26/08/2025 20:58:50.3859	-9,377322270393371E-001	-2,1308069E-003
26/08/2025 20:58:55.3859	-9,344366674900044E-001	-2,0162079E-003
26/08/2025 20:59:00.3859	-9,291688908815416E-001	-2,1117069E-003
26/08/2025 20:59:05.3859	-9,336179231882120E-001	-2,0544075E-003
26/08/2025 20:59:10.3859	-9,326688253641144E-001	-2,0353077E-003
26/08/2025 20:59:15.3859	-9,277270765900631E-001	-2,0926071E-003
26/08/2025 20:59:20.3859	-9,264653045773521E-001	-2,2454057E-003
26/08/2025 20:59:25.3859	-9,273466187357897E-001	-2,0544075E-003
26/08/2025 20:59:30.3859	-9,235728073835396E-001	-2,1117069E-003
26/08/2025 20:59:35.3859	-9,253700823068627E-001	-2,2072061E-003
26/08/2025 20:59:40.3859	-9,232818176746385E-001	-2,1499067E-003
26/08/2025 20:59:45.3859	-9,188520235657700E-001	-2,0735073E-003
26/08/2025 20:59:50.3859	-9,180467186212540E-001	-2,1117069E-003
26/08/2025 20:59:55.3859	-9,191148094654089E-001	-2,1117069E-003
26/08/2025 21:00:00.3859	-9,193558692932129E-001	-2,0735073E-003
26/08/2025 21:00:05.3859	-9,141293664574626E-001	-2,1690065E-003
26/08/2025 21:00:10.3859	-9,139971003294001E-001	-2,1690065E-003
26/08/2025 21:00:15.3859	-9,120790445327760E-001	-2,2263059E-003
26/08/2025 21:00:20.3859	-9,153144211053856E-001	-2,0926071E-003
26/08/2025 21:00:25.3859	-9,124939305782327E-001	-2,0544075E-003
26/08/2025 21:00:30.3859	-9,091046642422711E-001	-2,2263059E-003
26/08/2025 21:00:35.3859	-9,041120694160476E-001	-2,0735073E-003
26/08/2025 21:00:40.3859	-9,101129915952679E-001	-2,2072061E-003
26/08/2025 21:00:45.3859	-9,070908576965344E-001	-2,0926071E-003
26/08/2025 21:00:50.3859	-8,973198643445990E-001	-2,1117069E-003
26/08/2025 21:00:55.3859	-9,000866276979451E-001	-2,1881063E-003
26/08/2025 21:01:00.3859	-9,009143233537706E-001	-2,0926071E-003
26/08/2025 21:01:05.3859	-9,024103021502512E-001	-2,0926071E-003
26/08/2025 21:01:10.3859	-8,975288485527066E-001	-2,0926071E-003
26/08/2025 21:01:15.3859	-9,011685374379184E-001	-2,1499067E-003
26/08/2025 21:01:20.3859	-9,036302053093914E-001	-2,0735073E-003
26/08/2025 21:01:25.3859	-8,902853435516374E-001	-2,2263059E-003
26/08/2025 21:01:30.3859	-8,897328006982832E-001	-2,1499067E-003
26/08/2025 21:01:35.3859	-8,979733911275876E-001	-2,0926071E-003
26/08/2025 21:01:40.3859	-8,924174852728846E-001	-2,1881063E-003
26/08/2025 21:01:45.3859	-8,907224750757212E-001	-2,1308069E-003
26/08/2025 21:01:50.3859	-8,916031269788745E-001	-2,1308069E-003
26/08/2025 21:01:55.3859	-8,955557756781598E-001	-2,2072061E-003
26/08/2025 21:02:00.3859	-8,862114796757705E-001	-2,1499067E-003
26/08/2025 21:02:05.3859	-8,853650791764265E-001	-2,0926071E-003
26/08/2025 21:02:10.3859	-8,909185405731206E-001	-2,0926071E-003
26/08/2025 21:02:15.3859	-8,884033823609361E-001	-2,1117069E-003
26/08/2025 21:02:20.3859	-8,880494028687487E-001	-2,1881063E-003
26/08/2025 21:02:25.3859	-8,842993137240427E-001	-2,1881063E-003
26/08/2025 21:02:30.3859	-8,817890484452278E-001	-2,2263059E-003
26/08/2025 21:02:35.3859	-8,812104019999545E-001	-2,1308069E-003
26/08/2025 21:02:40.3859	-8,792757546067271E-001	-2,1117069E-003
26/08/2025 21:02:45.3859	-8,797379356265065E-001	-2,2072061E-003
26/08/2025 21:02:50.3859	-8,821326721668257E-001	-2,0162079E-003
26/08/2025 21:02:55.3859	-8,802696512818335E-001	-2,0353077E-003
26/08/2025 21:03:00.3859	-8,751830285549183E-001	-2,1308069E-003
26/08/2025 21:03:05.3859	-8,724204353332521E-001	-2,1690065E-003
26/08/2025 21:03:10.3859	-8,771416435003303E-001	-2,1308069E-003
26/08/2025 21:03:15.3859	-8,743660983920103E-001	-2,2454057E-003
26/08/2025 21:03:20.3859	-8,780477795243264E-001	-2,0353077E-003
26/08/2025 21:03:25.3859	-8,671438807606702E-001	-2,1117069E-003
26/08/2025 21:03:30.3859	-8,698005461215992E-001	-2,1499067E-003
26/08/2025 21:03:35.3859	-8,680698027372369E-001	-2,1499067E-003
26/08/2025 21:03:40.3859	-8,677444252491018E-001	-2,0735073E-003
26/08/2025 21:03:45.3859	-8,689531026840212E-001	-2,1117069E-003
26/08/2025 21:03:50.3859	-8,609899273991586E-001	-2,1499067E-003
26/08/2025 21:03:55.3859	-8,590366145491606E-001	-2,0926071E-003
26/08/2025 21:04:00.3859	-8,545926352977773E-001	-2,2072061E-003
26/08/2025 21:04:05.3859	-8,589474687337875E-001	-2,0544075E-003
26/08/2025 21:04:10.3859	-8,582052039146424E-001	-2,1117069E-003
26/08/2025 21:04:15.3859	-8,559489699482938E-001	-2,1308069E-003
26/08/2025 21:04:20.3859	-8,535340734958670E-001	-2,1881063E-003
26/08/2025 21:04:25.3859	-8,567657481670380E-001	-2,0544075E-003
26/08/2025 21:04:30.3859	-8,531389986991886E-001	-2,0353077E-003
26/08/2025 21:04:35.3859	-8,498701652169238E-001	-2,1117069E-003
26/08/2025 21:04:40.3859	-8,479152265429502E-001	-2,1881063E-003
26/08/2025 21:04:45.3859	-8,523539382696157E-001	-2,1117069E-003
26/08/2025 21:04:50.3859	-8,470583200216293E-001	-2,1499067E-003
26/08/2025 21:04:55.3859	-8,476904950737971E-001	-2,2072061E-003
26/08/2025 21:05:00.3859	-8,515678086757661E-001	-2,0735073E-003
26/08/2025 21:05:05.3859	-8,475500688433648E-001	-2,1690065E-003
26/08/2025 21:05:10.3859	-8,404519981861114E-001	-2,1117069E-003
26/08/2025 21:05:15.3859	-8,395578439235685E-001	-2,1499067E-003
26/08/2025 21:05:20.3859	-8,391355203390125E-001	-2,1117069E-003
26/08/2025 21:05:25.3859	-8,403193460226062E-001	-2,1117069E-003
26/08/2025 21:05:30.3859	-8,395231194496162E-001	-2,1690065E-003
26/08/2025 21:05:35.3859	-8,374200388669975E-001	-2,1690065E-003
26/08/2025 21:05:40.3859	-8,357371268033980E-001	-2,0735073E-003
26/08/2025 21:05:45.3859	-8,356316322088269E-001	-2,0735073E-003
26/08/2025 21:05:50.3859	-8,316900868535040E-001	-2,1308069E-003
26/08/2025 21:05:55.3859	-8,300487413048745E-001	-2,1499067E-003
26/08/2025 21:06:00.3859	-8,313603130578997E-001	-2,1499067E-003
26/08/2025 21:06:05.3859	-8,330872441291817E-001	-2,1308069E-003
26/08/2025 21:06:10.3859	-8,303499893546107E-001	-2,1690065E-003
26/08/2025 21:06:15.3859	-8,322601896286012E-001	-2,0353077E-003
26/08/2025 21:06:20.3859	-8,228748854279537E-001	-2,1308069E-003
26/08/2025 21:06:25.3859	-8,252709290027624E-001	-2,0926071E-003
26/08/2025 21:06:30.3859	-8,271811432719236E-001	-2,0735073E-003
26/08/2025 21:06:35.3859	-8,264359255313873E-001	-2,1499067E-003
26/08/2025 21:06:40.3859	-8,271867333650587E-001	-2,1308069E-003
26/08/2025 21:06:45.3859	-8,217789052367213E-001	-2,1881063E-003
26/08/2025 21:06:50.3859	-8,177432407498361E-001	-2,1117069E-003
26/08/2025 21:06:55.3859	-8,224504384756095E-001	-2,0735073E-003
26/08/2025 21:07:00.3859	-8,178063199758530E-001	-2,1499067E-003
26/08/2025 21:07:05.3859	-8,191103784561165E-001	-2,1881063E-003
26/08/2025 21:07:10.3859	-8,183446674466133E-001	-1,9971081E-003
26/08/2025 21:07:15.3859	-8,173832856774332E-001	-2,1308069E-003
26/08/2025 21:07:20.3859	-8,114715996146202E-001	-2,2263059E-003
26/08/2025 21:07:25.3859	-8,131226326584817E-001	-2,1881063E-003
26/08/2025 21:07:30.3859	-8,151521749973298E-001	-2,1881063E-003
26/08/2025 21:07:35.3859	-8,108428127169609E-001	-2,1117069E-003
26/08/2025 21:07:40.3859	-8,077175756335260E-001	-2,1499067E-003
26/08/2025 21:07:45.3859	-8,093803713321694E-001	-2,0544075E-003
26/08/2025 21:07:50.3859	-8,133125411152839E-001	-2,1499067E-003
26/08/2025 21:07:55.3859	-7,999412886857993E-001	-2,1499067E-003
26/08/2025 21:08:00.3859	-8,036334885120411E-001	-2,1690065E-003
26/08/2025 21:08:05.3859	-8,038323118805888E-001	-2,0353077E-003
26/08/2025 21:08:10.3859	-8,045026291847233E-001	-2,0926071E-003
26/08/2025 21:08:15.3859	-7,978282993674295E-001	-2,0544075E-003
26/08/2025 21:08:20.3859	-8,049756878852845E-001	-2,1499067E-003
26/08/2025 21:08:25.3859	-8,014265950441359E-001	-2,1690065E-003
26/08/2025 21:08:30.3859	-7,941637107014659E-001	-2,1308069E-003
26/08/2025 21:08:35.3859	-7,981475826025015E-001	-2,1117069E-003
26/08/2025 21:08:40.3859	-7,946580797672276E-001	-2,1117069E-003
26/08/2025 21:08:45.3859	-7,941399006962797E-001	-2,1881063E-003
26/08/2025 21:08:50.3859	-7,923668111920357E-001	-2,1499067E-003
26/08/2025 21:08:55.3859	-7,912636854410176E-001	-2,1308069E-003
26/08/2025 21:09:00.3859	-7,906133289933219E-001	-2,1117069E-003
26/08/2025 21:09:05.3859	-7,904008572697645E-001	-2,1499067E-003
26/08/2025 21:09:10.3859	-7,880683933496488E-001	-2,0926071E-003
26/08/2025 21:09:15.3859	-7,848019459247597E-001	-2,1117069E-003
26/08/2025 21:09:20.3859	-7,857264638781558E-001	-2,0162079E-003
26/08/2025 21:09:25.3859	-7,849541724920286E-001	-2,1117069E-003
26/08/2025 21:09:30.3859	-7,834730885982513E-001	-2,2645055E-003
26/08/2025 21:09:35.3859	-7,814630461573611E-001	-2,0353077E-003
26/08/2025 21:09:40.3859	-7,768632223367691E-001	-2,1308069E-003
26/08/2025 21:09:45.3859	-7,738033614873885E-001	-2,1690065E-003
26/08/2025 21:09:50.3859	-7,798455848097809E-001	-2,1117069E-003
26/08/2025 21:09:55.3859	-7,775809062719352E-001	-2,1499067E-003
26/08/2025 21:10:00.3859	-7,789881455898282E-001	-2,2263059E-003
26/08/2025 21:10:05.3859	-7,768210577607171E-001	-2,1117069E-003
26/08/2025 21:10:10.3859	-7,753588505029683E-001	-2,2263059E-003
26/08/2025 21:10:15.3859	-7,715656556963939E-001	-2,0926071E-003
26/08/2025 21:10:20.3859	-7,737963705778128E-001	-2,1690065E-003
26/08/2025 21:10:25.3859	-7,731845221519489E-001	-2,1117069E-003
26/08/2025 21:10:30.3859	-7,710551806807526E-001	-2,1117069E-003
26/08/2025 21:10:35.3859	-7,726126316308976E-001	-2,1308069E-003
26/08/2025 21:10:40.3859	-7,654280887365346E-001	-2,1499067E-003
26/08/2025 21:10:45.3859	-7,647153838157656E-001	-2,1690065E-003
26/08/2025 21:10:50.3859	-7,656174710273760E-001	-2,1499067E-003
26/08/2025 21:10:55.3859	-7,640750845670716E-001	-2,0353077E-003
26/08/2025 21:11:00.3859	-7,615081749081618E-001	-2,2072061E-003
26/08/2025 21:11:05.3859	-7,603383086681366E-001	-2,1690065E-003
26/08/2025 21:11:10.3859	-7,640805850505830E-001	-2,1117069E-003
26/08/2025 21:11:15.3859	-7,584607699275017E-001	-2,0544075E-003
26/08/2025 21:11:20.3859	-7,634628051757808E-001	-2,0353077E-003
26/08/2025 21:11:25.3859	-7,596909822344795E-001	-2,1690065E-003
26/08/2025 21:11:30.3859	-7,614743340373042E-001	-2,0544075E-003
26/08/2025 21:11:35.3859	-7,524977257251741E-001	-2,0735073E-003
26/08/2025 21:11:40.3859	-7,561111503124236E-001	-2,1881063E-003
26/08/2025 21:11:45.3859	-7,502815940856937E-001	-2,1881063E-003
26/08/2025 21:11:50.3859	-7,534478546619425E-001	-2,0353077E-003
26/08/2025 21:11:55.3859	-7,542489125132565E-001	-2,0735073E-003
26/08/2025 21:12:00.3859	-7,467341904282581E-001	-2,0162079E-003
26/08/2025 21:12:05.3859	-7,481947110176090E-001	-2,0926071E-003
26/08/2025 21:12:10.3859	-7,462757883667948E-001	-2,1117069E-003
26/08/2025 21:12:15.3859	-7,492058920621871E-001	-2,1690065E-003
26/08/2025 21:12:20.3859	-7,454123360037812E-001	-2,1881063E-003
26/08/2025 21:12:25.3859	-7,410323059320449E-001	-2,1499067E-003
26/08/2025 21:12:30.3859	-7,481484351515775E-001	-2,1308069E-003
26/08/2025 21:12:35.3859	-7,420374899387356E-001	-2,1499067E-003
26/08/2025 21:12:40.3859	-7,408136872768400E-001	-2,1117069E-003
26/08/2025 21:12:45.3859	-7,341447833657284E-001	-2,1308069E-003
26/08/2025 21:12:50.3859	-7,350436439752579E-001	-2,1308069E-003
26/08/2025 21:12:55.3859	-7,364866514205950E-001	-2,1881063E-003
26/08/2025 21:13:00.3859	-7,338119648933414E-001	-2,1690065E-003
26/08/2025 21:13:05.3859	-7,377971808552761E-001	-2,1308069E-003
26/08/2025 21:13:10.3859	-7,340840879797934E-001	-1,9971081E-003
26/08/2025 21:13:15.3859	-7,344926514625554E-001	-2,0735073E-003
26/08/2025 21:13:20.3859	-7,333672859549534E-001	-2,1117069E-003
26/08/2025 21:13:25.3859	-7,321854350328447E-001	-1,9780083E-003
26/08/2025 21:13:30.3859	-7,303608133673669E-001	-2,0544075E-003
26/08/2025 21:13:35.3859	-7,308351026773448E-001	-1,9589085E-003
26/08/2025 21:13:40.3859	-7,342516769766808E-001	-2,1117069E-003
26/08/2025 21:13:45.3859	-7,326884986877440E-001	-2,0926071E-003
26/08/2025 21:13:50.3859	-7,256995460391045E-001	-2,1499067E-003
26/08/2025 21:13:55.3859	-7,267522712826739E-001	-2,1117069E-003
26/08/2025 21:14:00.3859	-7,280976733565332E-001	-2,0544075E-003
26/08/2025 21:14:05.3859	-7,215425934195521E-001	-2,1690065E-003
26/08/2025 21:14:10.3859	-7,281924581170083E-001	-1,9971081E-003
26/08/2025 21:14:15.3859	-7,241889753937727E-001	-2,1499067E-003
26/08/2025 21:14:20.3859	-7,218945256352427E-001	-2,1881063E-003
26/08/2025 21:14:25.3859	-7,194794193744674E-001	-2,0735073E-003
26/08/2025 21:14:30.3859	-7,200972253322622E-001	-2,0735073E-003
26/08/2025 21:14:35.3859	-7,211563487648966E-001	-2,0735073E-003
26/08/2025 21:14:40.3859	-7,182380553483964E-001	-2,0926071E-003
26/08/2025 21:14:45.3859	-7,147089469075212E-001	-2,1308069E-003
26/08/2025 21:14:50.3859	-7,196699211359032E-001	-2,0162079E-003
26/08/2025 21:14:55.3859	-7,168841447591783E-001	-2,1117069E-003
26/08/2025 21:15:00.3859	-7,125832273960135E-001	-2,1117069E-003
26/08/2025 21:15:05.3859	-7,173924363732347E-001	-2,1117069E-003
26/08/2025 21:15:10.3859	-7,105714319825172E-001	-2,1690065E-003
26/08/2025 21:15:15.3859	-7,105169479012492E-001	-2,1881063E-003
26/08/2025 21:15:20.3859	-7,126329684734349E-001	-2,0926071E-003
26/08/2025 21:15:25.3859	-7,134829071760187E-001	-2,0735073E-003
26/08/2025 21:15:30.3859	-7,081611075282099E-001	-2,1499067E-003
26/08/2025 21:15:35.3859	-7,093427106499677E-001	-2,0353077E-003
26/08/2025 21:15:40.3859	-7,088753775119780E-001	-2,0926071E-003
26/08/2025 21:15:45.3859	-7,065923031210914E-001	-2,0544075E-003
26/08/2025 21:15:50.3859	-7,106762147784238E-001	-2,0926071E-003
26/08/2025 21:15:55.3859	-7,024514240622519E-001	-2,1499067E-003
26/08/2025 21:16:00.3859	-7,084382375597951E-001	-2,2263059E-003
26/08/2025 21:16:05.3859	-7,032260753393178E-001	-2,1499067E-003
26/08/2025 21:16:10.3859	-7,005743927717214E-001	-2,1308069E-003
26/08/2025 21:16:15.3859	-7,034396667599676E-001	-2,1499067E-003
26/08/2025 21:16:20.3859	-6,987411251783380E-001	-2,1690065E-003
26/08/2025 21:16:25.3859	-6,986731802344330E-001	-2,2263059E-003
26/08/2025 21:16:30.3859	-7,038577806353570E-001	-2,1690065E-003
26/08/2025 21:16:35.3859	-6,976756819725054E-001	-2,1881063E-003
26/08/2025 21:16:40.3859	-6,997801645636560E-001	-2,1117069E-003
26/08/2025 21:16:45.3859	-6,955847146749496E-001	-2,1308069E-003
26/08/2025 21:16:50.3859	-6,944644374847417E-001	-2,1308069E-003
26/08/2025 21:16:55.3859	-6,940696119785317E-001	-2,1690065E-003
26/08/2025 21:17:00.3859	-6,941028092265134E-001	-2,1690065E-003
26/08/2025 21:17:05.3859	-6,966507536292079E-001	-2,1117069E-003
26/08/2025 21:17:10.3859	-6,921258744716656E-001	-2,1308069E-003
26/08/2025 21:17:15.3859	-6,916570022821431E-001	-2,1499067E-003
26/08/2025 21:17:20.3859	-6,874020000696186E-001	-2,0926071E-003
26/08/2025 21:17:25.3859	-6,885863327860839E-001	-2,0926071E-003
26/08/2025 21:17:30.3859	-6,903058722496045E-001	-2,1499067E-003
26/08/2025 21:17:35.3859	-6,907979082703601E-001	-2,0735073E-003
26/08/2025 21:17:40.3859	-6,878961100101488E-001	-2,1690065E-003
26/08/2025 21:17:45.3859	-6,894001343965532E-001	-2,0926071E-003
26/08/2025 21:17:50.3859	-6,843279781222353E-001	-2,1499067E-003
26/08/2025 21:17:55.3859	-6,842527422308922E-001	-2,1499067E-003
26/08/2025 21:18:00.3859	-6,826497075080891E-001	-2,0926071E-003
26/08/2025 21:18:05.3859	-6,785196565628056E-001	-2,0353077E-003
26/08/2025 21:18:10.3859	-6,833284319281585E-001	-2,1308069E-003
26/08/2025 21:18:15.3859	-6,822666548728944E-001	-2,1881063E-003
26/08/2025 21:18:20.3859	-6,774497198104861E-001	-2,1308069E-003
26/08/2025 21:18:25.3859	-6,763202404975903E-001	-2,0735073E-003
26/08/2025 21:18:30.3859	-6,797381209850322E-001	-2,0926071E-003
26/08/2025 21:18:35.3859	-6,733685636758810E-001	-2,0735073E-003
26/08/2025 21:18:40.3859	-6,718485932946207E-001	-2,0926071E-003
26/08/2025 21:18:45.3859	-6,799554379940034E-001	-2,2072061E-003
26/08/2025 21:18:50.3859	-6,757590183258056E-001	-2,2454057E-003
26/08/2025 21:18:55.3859	-6,675038975954055E-001	-2,1499067E-003
26/08/2025 21:19:00.3859	-6,718889945626270E-001	-2,0926071E-003
26/08/2025 21:19:05.3859	-6,691981636524202E-001	-2,1117069E-003
26/08/2025 21:19:10.3859	-6,675325255632405E-001	-2,1117069E-003
26/08/2025 21:19:15.3859	-6,706850370526318E-001	-2,2454057E-003
26/08/2025 21:19:20.3859	-6,749269865393641E-001	-2,0544075E-003
26/08/2025 21:19:25.3859	-6,706393198966989E-001	-2,0926071E-003
26/08/2025 21:19:30.3859	-6,631260879039775E-001	-2,1499067E-003
26/08/2025 21:19:35.3859	-6,656882194638252E-001	-2,0353077E-003
26/08/2025 21:19:40.3859	-6,686958075881004E-001	-2,0735073E-003
26/08/2025 21:19:45.3859	-6,643785089731225E-001	-2,1308069E-003
26/08/2025 21:19:50.3859	-6,589237950086604E-001	-2,1499067E-003
26/08/2025 21:19:55.3859	-6,598103609085084E-001	-2,2072061E-003
26/08/2025 21:20:00.3859	-6,628484644055375E-001	-2,1499067E-003
26/08/2025 21:20:05.3859	-6,604770501613624E-001	-2,1308069E-003
26/08/2025 21:20:10.3859	-6,555321077942855E-001	-2,0162079E-003
26/08/2025 21:20:15.3859	-6,624217833876607E-001	-2,0735073E-003
26/08/2025 21:20:20.3859	-6,559190744757653E-001	-2,2072061E-003
26/08/2025 21:20:25.3859	-6,595612266302107E-001	-2,1308069E-003
26/08/2025 21:20:30.3859	-6,563690340042114E-001	-2,2072061E-003
26/08/2025 21:20:35.3859	-6,595394182324412E-001	-2,1117069E-003
26/08/2025 21:20:40.3859	-6,553497766733178E-001	-2,2263059E-003
26/08/2025 21:20:45.3859	-6,551122197270391E-001	-2,1117069E-003
26/08/2025 21:20:50.3859	-6,532649812698370E-001	-2,1308069E-003
26/08/2025 21:20:55.3859	-6,488412091970446E-001	-2,0544075E-003
26/08/2025 21:21:00.3859	-6,466485397815704E-001	-2,0926071E-003
26/08/2025 21:21:05.3859	-6,493810497045516E-001	-2,1499067E-003
26/08/2025 21:21:10.3859	-6,491929056406036E-001	-2,1117069E-003
26/08/2025 21:21:15.3859	-6,523350615978245E-001	-1,9971081E-003
26/08/2025 21:21:20.3859	-6,462683912158020E-001	-2,0544075E-003
26/08/2025 21:21:25.3859	-6,455239648699761E-001	-2,0353077E-003
26/08/2025 21:21:30.3859	-6,494535422801970E-001	-2,2072061E-003
26/08/2025 21:21:35.3859	-6,443181710481642E-001	-2,0735073E-003
26/08/2025 21:21:40.3859	-6,452264082670220E-001	-2,2072061E-003
26/08/2025 21:21:45.3859	-6,425972408533109E-001	-2,1308069E-003
26/08/2025 21:21:50.3859	-6,425103176712987E-001	-2,1308069E-003
26/08/2025 21:21:55.3859	-6,323099109530450E-001	-2,1499067E-003
26/08/2025 21:22:00.3859	-6,385297966122625E-001	-2,0926071E-003
26/08/2025 21:22:05.3859	-6,361224184751508E-001	-2,1117069E-003
26/08/2025 21:22:10.3859	-6,370698759555822E-001	-2,1690065E-003
26/08/2025 21:22:15.3859	-6,369866005897533E-001	-2,0735073E-003
26/08/2025 21:22:20.3859	-6,329524708509453E-001	-2,1499067E-003
26/08/2025 21:22:25.3859	-6,355163228392620E-001	-2,1499067E-003
26/08/2025 21:22:30.3859	-6,322443620204927E-001	-1,9398087E-003
26/08/2025 21:22:35.3859	-6,321005952358245E-001	-2,0544075E-003
26/08/2025 21:22:40.3859	-6,354830259680748E-001	-2,1690065E-003
26/08/2025 21:22:45.3859	-6,312139670372012E-001	-2,1117069E-003
26/08/2025 21:22:50.3859	-6,310219874501231E-001	-2,0162079E-003
26/08/2025 21:22:55.3859	-6,255234490156174E-001	-2,1308069E-003
26/08/2025 21:23:00.3859	-6,275225132942204E-001	-1,9971081E-003
26/08/2025 21:23:05.3859	-6,333402940630917E-001	-2,0735073E-003
26/08/2025 21:23:10.3859	-6,284322266578677E-001	-2,1308069E-003
26/08/2025 21:23:15.3859	-6,223955775737764E-001	-2,1117069E-003
26/08/2025 21:23:20.3859	-6,211061388969430E-001	-2,0353077E-003
26/08/2025 21:23:25.3859	-6,236342591524142E-001	-2,0926071E-003
26/08/2025 21:23:30.3859	-6,213391898512848E-001	-2,0926071E-003
26/08/2025 21:23:35.3859	-6,209454537272453E-001	-2,1117069E-003
26/08/2025 21:23:40.3859	-6,231594884991658E-001	-2,1499067E-003
26/08/2025 21:23:45.3859	-6,237398262977605E-001	-2,2072061E-003
26/08/2025 21:23:50.3859	-6,211873727202430E-001	-2,1881063E-003
26/08/2025 21:23:55.3859	-6,225204069018364E-001	-2,0926071E-003
26/08/2025 21:24:00.3859	-6,234202847361576E-001	-2,1690065E-003
26/08/2025 21:24:05.3859	-6,149643838882444E-001	-2,0735073E-003
26/08/2025 21:24:10.3859	-6,161170115590098E-001	-2,1499067E-003
26/08/2025 21:24:15.3859	-6,148309871077551E-001	-2,0735073E-003
26/08/2025 21:24:20.3859	-6,171267520546921E-001	-2,1117069E-003
26/08/2025 21:24:25.3859	-6,122580295205120E-001	-2,1881063E-003
26/08/2025 21:24:30.3859	-6,107257497310643E-001	-2,0162079E-003
26/08/2025 21:24:35.3859	-6,135785666346552E-001	-2,1690065E-003
26/08/2025 21:24:40.3859	-6,066789252996454E-001	-1,9971081E-003
26/08/2025 21:24:45.3859	-6,077691174745565E-001	-2,0926071E-003
26/08/2025 21:24:50.3859	-6,090967481255536E-001	-2,1308069E-003
26/08/2025 21:24:55.3859	-6,101246971845633E-001	-2,1690065E-003
26/08/2025 21:25:00.3859	-6,051097329854986E-001	-2,1308069E-003
26/08/2025 21:25:05.3859	-6,065432415485383E-001	-2,1499067E-003
26/08/2025 21:25:10.3859	-6,088885494589817E-001	-2,0544075E-003
26/08/2025 21:25:15.3859	-6,092828693151482E-001	-2,2072061E-003
26/08/2025 21:25:20.3859	-6,034210694313060E-001	-2,0544075E-003
26/08/2025 21:25:25.3859	-6,028600576877601E-001	-2,1881063E-003
26/08/2025 21:25:30.3859	-6,058915039300938E-001	-2,2072061E-003
26/08/2025 21:25:35.3859	-6,082540611863143E-001	-2,1690065E-003
26/08/2025 21:25:40.3859	-6,013652747392655E-001	-2,1499067E-003
26/08/2025 21:25:45.3859	-6,033915365457538E-001	-2,1117069E-003
26/08/2025 21:25:50.3859	-6,059214350581179E-001	-2,1117069E-003
26/08/2025 21:25:55.3859	-5,981987877368926E-001	-2,1499067E-003
26/08/2025 21:26:00.3859	-5,951241471767421E-001	-2,0735073E-003
26/08/2025 21:26:05.3859	-6,002932233810427E-001	-2,1690065E-003
26/08/2025 21:26:10.3859	-5,996217765569689E-001	-2,1117069E-003
26/08/2025 21:26:15.3859	-5,951789788484572E-001	-2,0353077E-003
26/08/2025 21:26:20.3859	-5,938970640659331E-001	-2,0926071E-003
26/08/2025 21:26:25.3859	-5,933887830495843E-001	-2,1117069E-003
26/08/2025 21:26:30.3859	-5,908124988198282E-001	-2,1690065E-003
26/08/2025 21:26:35.3859	-5,914173655629162E-001	-2,1117069E-003
26/08/2025 21:26:40.3859	-5,948342489480982E-001	-2,0353077E-003
26/08/2025 21:26:45.3859	-5,869946242213260E-001	-2,1308069E-003
26/08/2025 21:26:50.3859	-5,857583900690080E-001	-2,0735073E-003
26/08/2025 21:26:55.3859	-5,895829198360443E-001	-2,0735073E-003
26/08/2025 21:27:00.3859	-5,886711688756954E-001	-2,1499067E-003
26/08/2025 21:27:05.3859	-5,844110381126404E-001	-2,1690065E-003
26/08/2025 21:27:10.3859	-5,867399506330493E-001	-2,1308069E-003
26/08/2025 21:27:15.3859	-5,921286773562446E-001	-2,1308069E-003
26/08/2025 21:27:20.3859	-5,867349451541903E-001	-2,2263059E-003
26/08/2025 21:27:25.3859	-5,866234679698952E-001	-2,0544075E-003
26/08/2025 21:27:30.3859	-5,862543743968018E-001	-2,1499067E-003
26/08/2025 21:27:35.3859	-5,801188243150719E-001	-2,0544075E-003
26/08/2025 21:27:40.3859	-5,787292212367063E-001	-2,0926071E-003
26/08/2025 21:27:45.3859	-5,828869909405709E-001	-2,1690065E-003
26/08/2025 21:27:50.3859	-5,771586914300919E-001	-2,1117069E-003
26/08/2025 21:27:55.3859	-5,771865717649467E-001	-2,1690065E-003
26/08/2025 21:28:00.3859	-5,748692960977557E-001	-2,1308069E-003
26/08/2025 21:28:05.3859	-5,776046365737919E-001	-2,1499067E-003
26/08/2025 21:28:10.3859	-5,769902086734771E-001	-2,1308069E-003
26/08/2025 21:28:15.3859	-5,794813448429128E-001	-2,1308069E-003
26/08/2025 21:28:20.3859	-5,769660256266604E-001	-2,0735073E-003
26/08/2025 21:28:25.3859	-5,752920052289960E-001	-2,1881063E-003
26/08/2025 21:28:30.3859	-5,758461233735090E-001	-2,1117069E-003
26/08/2025 21:28:35.3859	-5,750651252865797E-001	-2,2072061E-003
26/08/2025 21:28:40.3859	-5,683196681499485E-001	-2,1881063E-003
26/08/2025 21:28:45.3859	-5,701994933724404E-001	-2,2072061E-003
26/08/2025 21:28:50.3859	-5,728040205001843E-001	-2,0735073E-003
26/08/2025 21:28:55.3859	-5,697423191189768E-001	-2,1499067E-003
26/08/2025 21:29:00.3859	-5,674372128844283E-001	-2,0544075E-003
26/08/2025 21:29:05.3859	-5,708224798321724E-001	-2,0735073E-003
26/08/2025 21:29:10.3859	-5,678320657491689E-001	-2,1117069E-003
26/08/2025 21:29:15.3859	-5,615346280813238E-001	-2,1881063E-003
26/08/2025 21:29:20.3859	-5,653253797531128E-001	-2,1117069E-003
26/08/2025 21:29:25.3859	-5,689312405705458E-001	-1,9589085E-003
26/08/2025 21:29:30.3859	-5,661413519620915E-001	-2,0353077E-003
26/08/2025 21:29:35.3859	-5,638547626137740E-001	-2,0926071E-003
26/08/2025 21:29:40.3859	-5,603929169893265E-001	-2,2263059E-003
26/08/2025 21:29:45.3859	-5,618545180201551E-001	-2,2454057E-003
26/08/2025 21:29:50.3859	-5,612025080680869E-001	-2,1308069E-003
26/08/2025 21:29:55.3858	-5,641390830039983E-001	-2,1499067E-003
26/08/2025 21:30:00.3858	-5,630644112348557E-001	-2,2263059E-003
26/08/2025 21:30:05.3858	-5,654535366654398E-001	-2,0544075E-003
26/08/2025 21:30:10.3858	-5,536707230091107E-001	-2,0735073E-003
26/08/2025 21:30:15.3858	-5,579346780180945E-001	-2,0353077E-003
26/08/2025 21:30:20.3858	-5,564487363815314E-001	-2,2454057E-003
26/08/2025 21:30:25.3858	-5,539734972000122E-001	-2,2454057E-003
26/08/2025 21:30:30.3858	-5,518388741493225E-001	-2,0162079E-003
26/08/2025 21:30:35.3858	-5,541285787224775E-001	-2,1308069E-003
26/08/2025 21:30:40.3858	-5,500548386573803E-001	-2,1117069E-003
26/08/2025 21:30:45.3858	-5,498051074028016E-001	-2,2263059E-003
26/08/2025 21:30:50.3858	-5,493199910879136E-001	-2,1881063E-003
26/08/2025 21:30:55.3858	-5,510839671254164E-001	-2,1117069E-003
26/08/2025 21:31:00.3858	-5,478320860981940E-001	-1,9971081E-003
26/08/2025 21:31:05.3858	-5,525305756807333E-001	-2,0353077E-003
26/08/2025 21:31:10.3858	-5,474683828592308E-001	-2,0926071E-003
26/08/2025 21:31:15.3858	-5,523269346952446E-001	-2,1690065E-003
26/08/2025 21:31:20.3858	-5,489270497202892E-001	-2,2454057E-003
26/08/2025 21:31:25.3858	-5,448859244465831E-001	-2,1308069E-003
26/08/2025 21:31:30.3858	-5,516473287463199E-001	-2,1499067E-003
26/08/2025 21:31:35.3858	-5,447146951317787E-001	-2,2263059E-003
26/08/2025 21:31:40.3858	-5,394869498252870E-001	-2,2263059E-003
26/08/2025 21:31:45.3858	-5,386713117480280E-001	-2,1117069E-003
26/08/2025 21:31:50.3858	-5,450520958542828E-001	-2,0926071E-003
26/08/2025 21:31:55.3858	-5,413911907911302E-001	-2,0735073E-003
26/08/2025 21:32:00.3858	-5,430673514723789E-001	-2,1690065E-003
26/08/2025 21:32:05.3858	-5,408255338907253E-001	-2,1499067E-003
26/08/2025 21:32:10.3858	-5,393214359045029E-001	-2,0735073E-003
26/08/2025 21:32:15.3858	-5,391250711441051E-001	-2,0926071E-003
26/08/2025 21:32:20.3858	-5,353143111824998E-001	-2,1881063E-003
26/08/2025 21:32:25.3858	-5,344703083038338E-001	-2,1308069E-003
26/08/2025 21:32:30.3858	-5,370026652693767E-001	-2,1499067E-003
26/08/2025 21:32:35.3858	-5,415088674664501E-001	-2,1308069E-003
26/08/2025 21:32:40.3858	-5,379851342201238E-001	-2,1308069E-003
26/08/2025 21:32:45.3858	-5,333553983330734E-001	-2,1308069E-003
26/08/2025 21:32:50.3858	-5,359679227948195E-001	-2,1499067E-003
26/08/2025 21:32:55.3858	-5,322100483894350E-001	-2,1117069E-003
26/08/2025 21:33:00.3858	-5,310300223648543E-001	-2,0162079E-003
26/08/2025 21:33:05.3858	-5,363243143677714E-001	-2,1499067E-003
26/08/2025 21:33:10.3858	-5,362535855293276E-001	-2,1117069E-003
26/08/2025 21:33:15.3858	-5,265651905715467E-001	-2,1881063E-003
26/08/2025 21:33:20.3858	-5,258590679645536E-001	-2,1308069E-003
26/08/2025 21:33:25.3858	-5,295735507369050E-001	-2,1308069E-003
26/08/2025 21:33:30.3858	-5,276588004469893E-001	-2,1308069E-003
26/08/2025 21:33:35.3858	-5,248270450711257E-001	-2,1308069E-003
26/08/2025 21:33:40.3858	-5,247877763926989E-001	-2,0926071E-003
26/08/2025 21:33:45.3858	-5,231549728810788E-001	-2,1499067E-003
26/08/2025 21:33:50.3858	-5,249295940577987E-001	-2,1117069E-003
26/08/2025 21:33:55.3858	-5,224734645545484E-001	-2,0162079E-003
26/08/2025 21:34:00.3858	-5,268546406626702E-001	-2,1308069E-003
26/08/2025 21:34:05.3858	-5,219497718870643E-001	-2,0353077E-003
26/08/2025 21:34:10.3858	-5,255376015901572E-001	-2,0926071E-003
26/08/2025 21:34:15.3858	-5,199480724453927E-001	-2,0544075E-003
26/08/2025 21:34:20.3858	-5,229582094967373E-001	-2,1499067E-003
26/08/2025 21:34:25.3858	-5,153962544023987E-001	-2,2072061E-003
26/08/2025 21:34:30.3858	-5,196477680325513E-001	-2,0926071E-003
26/08/2025 21:34:35.3858	-5,193699694633489E-001	-2,0926071E-003
26/08/2025 21:34:40.3858	-5,137679698526858E-001	-2,1117069E-003
26/08/2025 21:34:45.3858	-5,184524181842809E-001	-2,0926071E-003
26/08/2025 21:34:50.3858	-5,120647009193897E-001	-2,1881063E-003
26/08/2025 21:34:55.3858	-5,144658723711970E-001	-2,0544075E-003
26/08/2025 21:35:00.3858	-5,114205615520477E-001	-2,0353077E-003
26/08/2025 21:35:05.3858	-5,117573028266440E-001	-2,1117069E-003
26/08/2025 21:35:10.3858	-5,128420600891114E-001	-2,0162079E-003
26/08/2025 21:35:15.3858	-5,100655697345733E-001	-2,0735073E-003
26/08/2025 21:35:20.3858	-5,073178934097293E-001	-2,1690065E-003
26/08/2025 21:35:25.3858	-5,103467719793320E-001	-2,1881063E-003
26/08/2025 21:35:30.3858	-5,109750260353092E-001	-2,1499067E-003
26/08/2025 21:35:35.3858	-5,088767763853088E-001	-2,1499067E-003
26/08/2025 21:35:40.3858	-5,098482533931730E-001	-2,1117069E-003
26/08/2025 21:35:45.3858	-5,085362200081348E-001	-2,1308069E-003
26/08/2025 21:35:50.3858	-5,088807865679268E-001	-2,0735073E-003
26/08/2025 21:35:55.3858	-5,058496621131898E-001	-2,0735073E-003
26/08/2025 21:36:00.3858	-5,081722166955471E-001	-2,1881063E-003
26/08/2025 21:36:05.3858	-5,077763103604322E-001	-2,0544075E-003
26/08/2025 21:36:10.3858	-5,036602789282796E-001	-2,1499067E-003
26/08/2025 21:36:15.3858	-5,056658400774002E-001	-2,0735073E-003
26/08/2025 21:36:20.3858	-5,025816092967990E-001	-2,2263059E-003
26/08/2025 21:36:25.3858	-5,057129699230210E-001	-2,0735073E-003
26/08/2025 21:36:30.3858	-5,050405686736124E-001	-2,0735073E-003
26/08/2025 21:36:35.3858	-4,992043397963049E-001	-2,1308069E-003
26/08/2025 21:36:40.3858	-4,964364695429806E-001	-2,1308069E-003
26/08/2025 21:36:45.3858	-5,007204988121987E-001	-2,0544075E-003
26/08/2025 21:36:50.3858	-4,992069909572602E-001	-2,1499067E-003
26/08/2025 21:36:55.3858	-5,003780552029617E-001	-2,1499067E-003
26/08/2025 21:37:00.3858	-4,998463032007212E-001	-2,0353077E-003
26/08/2025 21:37:05.3858	-4,955687559127808E-001	-2,1690065E-003
26/08/2025 21:37:10.3858	-4,935412681281568E-001	-2,0353077E-003
26/08/2025 21:37:15.3858	-4,965896952986717E-001	-2,0735073E-003
26/08/2025 21:37:20.3858	-5,016368682801726E-001	-2,0926071E-003
26/08/2025 21:37:25.3858	-4,983922285377980E-001	-2,1117069E-003
26/08/2025 21:37:30.3858	-4,916678822398186E-001	-2,2263059E-003
26/08/2025 21:37:35.3858	-4,947760381102564E-001	-2,1690065E-003
26/08/2025 21:37:40.3858	-4,963795622348792E-001	-2,0353077E-003
26/08/2025 21:37:45.3858	-4,922476044476034E-001	-2,0162079E-003
26/08/2025 21:37:50.3858	-4,901000018537047E-001	-2,1690065E-003
26/08/2025 21:37:55.3858	-4,918574772834781E-001	-2,0735073E-003
26/08/2025 21:38:00.3858	-4,939114810287952E-001	-2,1117069E-003
26/08/2025 21:38:05.3858	-4,887673154830932E-001	-2,0926071E-003
26/08/2025 21:38:10.3858	-4,895501083195213E-001	-2,1690065E-003
26/08/2025 21:38:15.3858	-4,867826864719387E-001	-2,1690065E-003
26/08/2025 21:38:20.3858	-4,828001664400112E-001	-2,1308069E-003
26/08/2025 21:38:25.3858	-4,819713895559312E-001	-2,0926071E-003
26/08/2025 21:38:30.3858	-4,869498973488806E-001	-2,0544075E-003
26/08/2025 21:38:35.3858	-4,858809885144240E-001	-2,1499067E-003
26/08/2025 21:38:40.3858	-4,858365517377852E-001	-2,1117069E-003
26/08/2025 21:38:45.3858	-4,820481180608276E-001	-2,0926071E-003
26/08/2025 21:38:50.3858	-4,870236805379391E-001	-2,1117069E-003
26/08/2025 21:38:55.3858	-4,803163939774042E-001	-2,2454057E-003
26/08/2025 21:39:00.3858	-4,809393977820893E-001	-2,0162079E-003
26/08/2025 21:39:05.3858	-4,779363718509693E-001	-2,0162079E-003
26/08/2025 21:39:10.3858	-4,805610023140909E-001	-2,0162079E-003
26/08/2025 21:39:15.3858	-4,844485067903994E-001	-2,0544075E-003
26/08/2025 21:39:20.3858	-4,857138722062111E-001	-2,0926071E-003
26/08/2025 21:39:25.3858	-4,773976958215247E-001	-2,0735073E-003
26/08/2025 21:39:30.3858	-4,754026923656465E-001	-2,1690065E-003
26/08/2025 21:39:35.3858	-4,793571130216128E-001	-2,0735073E-003
26/08/2025 21:39:40.3858	-4,734300615906726E-001	-2,0544075E-003
26/08/2025 21:39:45.3858	-4,803307879805576E-001	-2,1881063E-003
26/08/2025 21:39:50.3858	-4,755674116790303E-001	-2,0162079E-003
26/08/2025 21:39:55.3858	-4,735211401700976E-001	-2,1499067E-003
26/08/2025 21:40:00.3858	-4,751788184225560E-001	-2,0926071E-003
26/08/2025 21:40:05.3858	-4,755924305617811E-001	-2,0353077E-003
26/08/2025 21:40:10.3858	-4,818102223038672E-001	-2,0926071E-003
26/08/2025 21:40:15.3858	-4,685854486286649E-001	-2,1499067E-003
26/08/2025 21:40:20.3858	-4,717825457990177E-001	-2,0544075E-003
26/08/2025 21:40:25.3858	-4,734405647397057E-001	-2,0926071E-003
26/08/2025 21:40:30.3858	-4,731591736495506E-001	-2,1881063E-003
26/08/2025 21:40:35.3858	-4,754854936420925E-001	-2,1117069E-003
26/08/2025 21:40:40.3858	-4,736048401892186E-001	-2,1690065E-003
26/08/2025 21:40:45.3858	-4,776585168182859E-001	-2,0926071E-003
26/08/2025 21:40:50.3858	-4,803514371216302E-001	-2,0544075E-003
26/08/2025 21:40:55.3858	-4,732914966702477E-001	-2,1499067E-003
26/08/2025 21:41:00.3858	-4,711768764853499E-001	-2,0162079E-003
26/08/2025 21:41:05.3858	-4,727778634667406E-001	-2,1117069E-003
26/08/2025 21:41:10.3858	-4,705001035571108E-001	-2,1117069E-003
26/08/2025 21:41:15.3858	-4,691127076745039E-001	-2,0544075E-003
26/08/2025 21:41:20.3858	-4,692290538370614E-001	-2,1499067E-003
26/08/2025 21:41:25.3858	-4,690436322867875E-001	-2,1117069E-003
26/08/2025 21:41:30.3858	-4,667734639227392E-001	-2,1881063E-003
26/08/2025 21:41:35.3858	-4,684568943560123E-001	-1,9971081E-003
26/08/2025 21:41:40.3858	-4,635126459479340E-001	-2,1308069E-003
26/08/2025 21:41:45.3858	-4,658743944466117E-001	-2,0544075E-003
26/08/2025 21:41:50.3858	-4,663281032979496E-001	-2,1117069E-003
26/08/2025 21:41:55.3858	-4,683595805525780E-001	-2,1499067E-003
26/08/2025 21:42:00.3858	-4,693577182233337E-001	-2,1881063E-003
26/08/2025 21:42:05.3858	-4,671135363578802E-001	-2,0162079E-003
26/08/2025 21:42:10.3858	-4,632642484545713E-001	-2,0926071E-003
26/08/2025 21:42:15.3858	-4,640846639394773E-001	-2,1308069E-003
26/08/2025 21:42:20.3858	-4,611661117255690E-001	-2,1881063E-003
26/08/2025 21:42:25.3858	-4,648702844738981E-001	-2,1308069E-003
26/08/2025 21:42:30.3858	-4,639467812001712E-001	-2,2263059E-003
26/08/2025 21:42:35.3858	-4,622280755758297E-001	-2,1499067E-003
26/08/2025 21:42:40.3858	-4,572701689660552E-001	-2,1499067E-003
26/08/2025 21:42:45.3858	-4,545960179090502E-001	-2,1308069E-003
26/08/2025 21:42:50.3858	-4,510649339616304E-001	-2,1117069E-003
26/08/2025 21:42:55.3858	-4,582804583132276E-001	-2,2072061E-003
26/08/2025 21:43:00.3858	-4,634964515089988E-001	-1,9971081E-003
26/08/2025 21:43:05.3858	-4,608211862087250E-001	-2,1499067E-003
26/08/2025 21:43:10.3858	-4,536027396082885E-001	-2,0353077E-003
26/08/2025 21:43:15.3858	-4,552760468542578E-001	-2,0926071E-003
26/08/2025 21:43:20.3858	-4,577088183939466E-001	-2,1117069E-003
26/08/2025 21:43:25.3858	-4,520206236660487E-001	-2,1690065E-003
26/08/2025 21:43:30.3858	-4,571856500685221E-001	-2,2072061E-003
26/08/2025 21:43:35.3858	-4,554229154527203E-001	-2,1117069E-003
26/08/2025 21:43:40.3858	-4,537055867552766E-001	-2,1690065E-003
26/08/2025 21:43:45.3858	-4,527593431770800E-001	-2,1117069E-003
26/08/2025 21:43:50.3858	-4,516339357852939E-001	-2,1308069E-003
26/08/2025 21:43:55.3858	-4,489648432314395E-001	-2,1308069E-003
26/08/2025 21:44:00.3858	-4,522370807051672E-001	-2,1499067E-003
26/08/2025 21:44:05.3858	-4,488092182576668E-001	-2,0353077E-003
26/08/2025 21:44:10.3858	-4,477287594616413E-001	-2,1690065E-003
26/08/2025 21:44:15.3858	-4,456946708559997E-001	-2,1308069E-003
26/08/2025 21:44:20.3858	-4,443286006450649E-001	-2,1308069E-003
26/08/2025 21:44:25.3858	-4,492198672354242E-001	-2,0162079E-003
26/08/2025 21:44:30.3858	-4,410329271554945E-001	-2,1881063E-003
26/08/2025 21:44:35.3858	-4,425826592504984E-001	-2,2263059E-003
26/08/2025 21:44:40.3858	-4,442193025112156E-001	-2,1690065E-003
26/08/2025 21:44:45.3858	-4,437367740869522E-001	-2,0353077E-003
26/08/2025 21:44:50.3858	-4,492635449886322E-001	-2,1117069E-003
26/08/2025 21:44:55.3858	-4,444789087176328E-001	-2,1690065E-003
26/08/2025 21:45:00.3858	-4,425181663036355E-001	-2,0735073E-003
26/08/2025 21:45:05.3858	-4,427761111617090E-001	-2,0544075E-003
26/08/2025 21:45:10.3858	-4,450654559016236E-001	-2,1499067E-003
26/08/2025 21:45:15.3858	-4,425266106843948E-001	-2,2072061E-003
26/08/2025 21:45:20.3858	-4,374925044357774E-001	-1,9971081E-003
26/08/2025 21:45:25.3858	-4,377348608732232E-001	-2,0544075E-003
26/08/2025 21:45:30.3858	-4,371116043031211E-001	-2,1499067E-003
26/08/2025 21:45:35.3858	-4,302735339462758E-001	-2,1117069E-003
26/08/2025 21:45:40.3858	-4,383336860835554E-001	-2,1308069E-003
26/08/2025 21:45:45.3858	-4,422461211323743E-001	-2,1308069E-003
26/08/2025 21:45:50.3858	-4,355449456691742E-001	-2,1117069E-003
26/08/2025 21:45:55.3858	-4,345864146888268E-001	-2,0926071E-003
26/08/2025 21:46:00.3858	-4,327388280928144E-001	-2,1499067E-003
26/08/2025 21:46:05.3858	-4,420998847603803E-001	-2,0544075E-003
26/08/2025 21:46:10.3858	-4,360976475656035E-001	-2,1308069E-003
26/08/2025 21:46:15.3858	-4,321641476869589E-001	-2,0926071E-003
26/08/2025 21:46:20.3858	-4,341873539388180E-001	-2,1117069E-003
26/08/2025 21:46:25.3858	-4,344953505635267E-001	-2,1499067E-003
26/08/2025 21:46:30.3858	-4,307190878808509E-001	-2,1499067E-003
26/08/2025 21:46:35.3858	-4,312895120978357E-001	-2,0353077E-003
26/08/2025 21:46:40.3858	-4,319222335517416E-001	-2,0926071E-003
26/08/2025 21:46:44.3380	-4,339742440870396E-001	-2,2263059E-003