File: data/phase_2a/Sergey/1/3.3/02 polarisation/SN50_C5D1E1_lr_0,1MFeCN6_in_1M_KCl_3306mL_symmetric_balanced_4_point_PEIS_10mHz_200kHz_10mV_03_CP_C16.txt
time/s	I/mA	<Ewe/V>
26/08/2025 20:02:04.3307	1,1159762E-001	-8,9270771E-002
26/08/2025 20:02:07.3307	1,8159975E-001	-7,1448937E-002
26/08/2025 20:02:10.3307	1,3068911E-001	-6,3622713E-002
26/08/2025 20:02:13.3307	6,0686987E-002	-5,7895441E-002
26/08/2025 20:02:16.3307	1,4978060E-001	-5,3330507E-002
26/08/2025 20:02:19.3307	1,3068911E-001	-4,9535986E-002
26/08/2025 20:02:22.3307	9,2506140E-002	-4,6370875E-002
26/08/2025 20:02:25.3307	7,3414646E-002	-4,3571915E-002
26/08/2025 20:02:28.3307	1,0523378E-001	-4,0979955E-002
26/08/2025 20:02:31.3307	1,6887209E-001	-3,8683619E-002
26/08/2025 20:02:34.3307	1,6250826E-001	-3,6620304E-002
26/08/2025 20:02:37.3307	2,0705505E-001	-3,4850288E-002
26/08/2025 20:02:40.3307	1,1796144E-001	-3,3110064E-002
26/08/2025 20:02:43.3307	1,3705294E-001	-3,1507362E-002
26/08/2025 20:02:46.3307	1,7523590E-001	-3,0044084E-002
26/08/2025 20:02:49.3307	1,0523378E-001	-2,8752478E-002
26/08/2025 20:02:52.3307	1,6250826E-001	-2,7532650E-002
26/08/2025 20:02:55.3307	1,2432528E-001	-2,6352739E-002
26/08/2025 20:02:58.3307	1,0523378E-001	-2,5280515E-002
26/08/2025 20:03:01.3307	1,1796144E-001	-2,4296911E-002
26/08/2025 20:03:04.3307	1,4978060E-001	-2,3428176E-002
26/08/2025 20:03:07.3307	1,1159762E-001	-2,2567958E-002
26/08/2025 20:03:10.3307	1,2432528E-001	-2,1747658E-002
26/08/2025 20:03:13.3307	2,0069122E-001	-2,0989968E-002
26/08/2025 20:03:16.3307	1,4978060E-001	-2,0312384E-002
26/08/2025 20:03:19.3307	1,1796144E-001	-1,9674908E-002
26/08/2025 20:03:22.3307	9,8869957E-002	-1,9035177E-002
26/08/2025 20:03:25.3307	1,3705294E-001	-1,8443923E-002
26/08/2025 20:03:28.3307	1,3705294E-001	-1,7884225E-002
26/08/2025 20:03:31.3307	1,4978060E-001	-1,7400997E-002
26/08/2025 20:03:34.3307	1,2432528E-001	-1,6904477E-002
26/08/2025 20:03:37.3307	1,2432528E-001	-1,6410595E-002
26/08/2025 20:03:40.3307	1,6887209E-001	-1,5958274E-002
26/08/2025 20:03:43.3307	1,3705294E-001	-1,5548087E-002
26/08/2025 20:03:46.3307	1,0523378E-001	-1,5140993E-002
26/08/2025 20:03:49.3307	1,0523378E-001	-1,4725532E-002
26/08/2025 20:03:52.3307	1,3705294E-001	-1,4353239E-002
26/08/2025 20:03:55.3307	7,9778478E-002	-1,3978616E-002
26/08/2025 20:03:58.3307	1,4978060E-001	-1,3656249E-002
26/08/2025 20:04:01.3307	1,2432528E-001	-1,3316655E-002
26/08/2025 20:04:04.3305	7,9778478E-002	-1,2986891E-002
26/08/2025 20:04:07.3305	1,3270198E+002	5,7401419E-002
26/08/2025 20:04:10.3305	1,3261925E+002	6,7294478E-002
26/08/2025 20:04:13.3305	1,3261288E+002	7,4532308E-002
26/08/2025 20:04:16.3305	1,3265106E+002	8,0638565E-002
26/08/2025 20:04:19.3305	1,3267017E+002	8,5959658E-002
26/08/2025 20:04:22.3305	1,3260652E+002	9,0939820E-002
26/08/2025 20:04:25.3305	1,3259380E+002	9,5350124E-002
26/08/2025 20:04:28.3305	1,3268288E+002	9,9288732E-002
26/08/2025 20:04:31.3305	1,3258743E+002	1,0290994E-001
26/08/2025 20:04:34.3305	1,3263199E+002	1,0643902E-001
26/08/2025 20:04:37.3305	1,3260016E+002	1,0993987E-001
26/08/2025 20:04:40.3305	1,3257471E+002	1,1288926E-001
26/08/2025 20:04:43.3305	1,3258107E+002	1,1570988E-001
26/08/2025 20:04:46.3305	1,3265744E+002	1,1841438E-001
26/08/2025 20:04:49.3305	1,3259380E+002	1,2124153E-001
26/08/2025 20:04:52.3305	1,3260016E+002	1,2386787E-001
26/08/2025 20:04:55.3305	1,3260016E+002	1,2618044E-001
26/08/2025 20:04:58.3305	1,3256834E+002	1,2836286E-001
26/08/2025 20:05:01.3305	1,3267017E+002	1,3066515E-001
26/08/2025 20:05:04.3305	1,3263199E+002	1,3312949E-001
26/08/2025 20:05:07.3305	1,3261925E+002	1,3513023E-001
26/08/2025 20:05:10.3305	1,3265744E+002	1,3706692E-001
26/08/2025 20:05:13.3305	1,3261288E+002	1,3900991E-001
26/08/2025 20:05:16.3305	1,3265106E+002	1,4121537E-001
26/08/2025 20:05:19.3305	1,3266380E+002	1,4332566E-001
26/08/2025 20:05:22.3305	1,3265744E+002	1,4513882E-001
26/08/2025 20:05:25.3305	1,3256834E+002	1,4688800E-001
26/08/2025 20:05:28.3305	1,3257471E+002	1,4885135E-001
26/08/2025 20:05:31.3305	1,3268288E+002	1,5107924E-001
26/08/2025 20:05:34.3305	1,3261288E+002	1,5287140E-001
26/08/2025 20:05:37.3305	1,3260652E+002	1,5463585E-001
26/08/2025 20:05:40.3305	1,3254289E+002	1,5647872E-001
26/08/2025 20:05:43.3305	1,3258743E+002	1,5863517E-001
26/08/2025 20:05:46.3305	1,3260016E+002	1,6075452E-001
26/08/2025 20:05:49.3305	1,3260652E+002	1,6256666E-001
26/08/2025 20:05:52.3305	1,3267017E+002	1,6431972E-001
26/08/2025 20:05:55.3305	1,3263199E+002	1,6630650E-001
26/08/2025 20:05:58.3305	1,3258743E+002	1,6859633E-001
26/08/2025 20:06:01.3305	1,3266380E+002	1,7041466E-001
26/08/2025 20:06:04.3305	1,3264470E+002	1,7218760E-001
26/08/2025 20:06:07.2307	8,6142294E-002	8,9282535E-002
26/08/2025 20:06:10.2307	9,2506140E-002	7,7793874E-002
26/08/2025 20:06:13.2307	1,2432528E-001	7,0230879E-002
26/08/2025 20:06:16.2307	1,3705294E-001	6,4215854E-002
26/08/2025 20:06:19.2307	9,2506140E-002	5,9192449E-002
26/08/2025 20:06:22.2307	1,1159762E-001	5,4920353E-002
26/08/2025 20:06:25.2307	1,1796144E-001	5,1315337E-002
26/08/2025 20:06:28.2307	1,7523590E-001	4,8112601E-002
26/08/2025 20:06:31.2307	1,1159762E-001	4,5144301E-002
26/08/2025 20:06:34.2307	1,4978060E-001	4,2483542E-002
26/08/2025 20:06:37.2307	8,6142294E-002	4,0070970E-002
26/08/2025 20:06:40.2307	1,4341676E-001	3,7987597E-002
26/08/2025 20:06:43.2307	1,6887209E-001	3,5963017E-002
26/08/2025 20:06:46.2307	1,0523378E-001	3,4079053E-002
26/08/2025 20:06:49.2307	1,6250826E-001	3,2346390E-002
26/08/2025 20:06:52.2307	8,6142294E-002	3,0807862E-002
26/08/2025 20:06:55.2307	1,2432528E-001	2,9368538E-002
26/08/2025 20:06:58.2307	7,3414646E-002	2,7966382E-002
26/08/2025 20:07:01.2307	7,3414646E-002	2,6690895E-002
26/08/2025 20:07:04.2307	1,8796356E-001	2,5479395E-002
26/08/2025 20:07:07.2307	1,4341676E-001	2,4449112E-002
26/08/2025 20:07:10.2307	5,4323155E-002	2,3411915E-002
26/08/2025 20:07:13.2307	6,0686987E-002	2,2421399E-002
26/08/2025 20:07:16.2307	7,3414646E-002	2,1507511E-002
26/08/2025 20:07:19.2307	1,4341676E-001	2,0663986E-002
26/08/2025 20:07:22.2307	1,8159975E-001	1,9891553E-002
26/08/2025 20:07:25.2307	1,1159762E-001	1,9098947E-002
26/08/2025 20:07:28.2307	1,4978060E-001	1,8389389E-002
26/08/2025 20:07:31.2307	9,8869957E-002	1,7682200E-002
26/08/2025 20:07:34.2307	1,6887209E-001	1,7091366E-002
26/08/2025 20:07:37.2307	1,6250826E-001	1,6470697E-002
26/08/2025 20:07:40.2307	1,2432528E-001	1,5874287E-002
26/08/2025 20:07:43.2307	1,7523590E-001	1,5309314E-002
26/08/2025 20:07:46.2307	1,1796144E-001	1,4778262E-002
26/08/2025 20:07:49.2307	1,4341676E-001	1,4277809E-002
26/08/2025 20:07:52.2307	9,2506140E-002	1,3759708E-002
26/08/2025 20:07:55.2307	1,4978060E-001	1,3294321E-002
26/08/2025 20:07:58.2307	1,3068911E-001	1,2815337E-002
26/08/2025 20:08:01.2307	6,0686987E-002	1,2415691E-002
26/08/2025 20:08:04.2307	1,3068911E-001	1,1985066E-002
26/08/2025 20:08:07.1309	-1,3238332E+002	-5,6963868E-002
26/08/2025 20:08:10.1309	-1,3233878E+002	-6,7084901E-002
26/08/2025 20:08:13.1309	-1,3241513E+002	-7,4965410E-002
26/08/2025 20:08:16.1309	-1,3244060E+002	-8,1304446E-002
26/08/2025 20:08:19.1309	-1,3234514E+002	-8,6742967E-002
26/08/2025 20:08:22.1309	-1,3237695E+002	-9,1669306E-002
26/08/2025 20:08:25.1309	-1,3235150E+002	-9,6262164E-002
26/08/2025 20:08:28.1309	-1,3235785E+002	-1,0070810E-001
26/08/2025 20:08:31.1309	-1,3240878E+002	-1,0447211E-001
26/08/2025 20:08:34.1309	-1,3237695E+002	-1,0800007E-001
26/08/2025 20:08:37.1309	-1,3237061E+002	-1,1135396E-001
26/08/2025 20:08:40.1309	-1,3235785E+002	-1,1482295E-001
26/08/2025 20:08:43.1309	-1,3231967E+002	-1,1793327E-001
26/08/2025 20:08:46.1309	-1,3241513E+002	-1,2071341E-001
26/08/2025 20:08:49.1309	-1,3235150E+002	-1,2341917E-001
26/08/2025 20:08:52.1309	-1,3244696E+002	-1,2611231E-001
26/08/2025 20:08:55.1309	-1,3232603E+002	-1,2898771E-001
26/08/2025 20:08:58.1309	-1,3240242E+002	-1,3134903E-001
26/08/2025 20:09:01.1309	-1,3235150E+002	-1,3358660E-001
26/08/2025 20:09:04.1309	-1,3231967E+002	-1,3581151E-001
26/08/2025 20:09:07.1309	-1,3237695E+002	-1,3833119E-001
26/08/2025 20:09:10.1309	-1,3238968E+002	-1,4061981E-001
26/08/2025 20:09:13.1309	-1,3241513E+002	-1,4261299E-001
26/08/2025 20:09:16.1309	-1,3236423E+002	-1,4462467E-001
26/08/2025 20:09:19.1309	-1,3240242E+002	-1,4672427E-001
26/08/2025 20:09:22.1309	-1,3242787E+002	-1,4920586E-001
26/08/2025 20:09:25.1309	-1,3232603E+002	-1,5117154E-001
26/08/2025 20:09:28.1309	-1,3233878E+002	-1,5306403E-001
26/08/2025 20:09:31.1309	-1,3232603E+002	-1,5502100E-001
26/08/2025 20:09:34.1309	-1,3242149E+002	-1,5736008E-001
26/08/2025 20:09:37.1309	-1,3240242E+002	-1,5956706E-001
26/08/2025 20:09:40.1309	-1,3236423E+002	-1,6145389E-001
26/08/2025 20:09:43.1309	-1,3234514E+002	-1,6340555E-001
26/08/2025 20:09:46.1309	-1,3233240E+002	-1,6547169E-001
26/08/2025 20:09:49.1309	-1,3245969E+002	-1,6800612E-001
26/08/2025 20:09:52.1309	-1,3236423E+002	-1,6999546E-001
26/08/2025 20:09:55.1309	-1,3239604E+002	-1,7189084E-001
26/08/2025 20:09:58.1309	-1,3235150E+002	-1,7382050E-001
26/08/2025 20:10:01.1309	-1,3239604E+002	-1,7616634E-001
26/08/2025 20:10:04.1309	-1,3235150E+002	-1,7842485E-001
26/08/2025 20:10:07.0311	1,5909914E+002	-1,8961467E-003
26/08/2025 20:10:10.0311	1,5905460E+002	2,0782292E-002
26/08/2025 20:10:13.0311	1,5909914E+002	3,6326107E-002
26/08/2025 20:10:16.0311	1,5908005E+002	4,8687737E-002
26/08/2025 20:10:19.0311	1,5907368E+002	5,8863245E-002
26/08/2025 20:10:22.0311	1,5908005E+002	6,7776404E-002
26/08/2025 20:10:25.0311	1,5907368E+002	7,5776018E-002
26/08/2025 20:10:28.0311	1,5911823E+002	8,3228841E-002
26/08/2025 20:10:31.0311	1,5909277E+002	9,0053171E-002
26/08/2025 20:10:34.0311	1,5911823E+002	9,6102498E-002
26/08/2025 20:10:37.0311	1,5909277E+002	1,0183053E-001
26/08/2025 20:10:40.0311	1,5912460E+002	1,0721783E-001
26/08/2025 20:10:43.0311	1,5909277E+002	1,1254267E-001
26/08/2025 20:10:46.0311	1,5909277E+002	1,1727560E-001
26/08/2025 20:10:49.0311	1,5911188E+002	1,2164683E-001
26/08/2025 20:10:52.0311	1,5909277E+002	1,2578370E-001
26/08/2025 20:10:55.0311	1,5913097E+002	1,2991317E-001
26/08/2025 20:10:58.0311	1,5914371E+002	1,3392584E-001
26/08/2025 20:11:01.0311	1,5900368E+002	1,3735040E-001
26/08/2025 20:11:04.0311	1,5910551E+002	1,4065382E-001
26/08/2025 20:11:07.0311	1,5914371E+002	1,4382669E-001
26/08/2025 20:11:10.0311	1,5907368E+002	1,4725995E-001
26/08/2025 20:11:13.0311	1,5908643E+002	1,5021947E-001
26/08/2025 20:11:16.0311	1,5911188E+002	1,5290096E-001
26/08/2025 20:11:19.0311	1,5908643E+002	1,5550669E-001
26/08/2025 20:11:22.0311	1,5909277E+002	1,5828812E-001
26/08/2025 20:11:25.0311	1,5911188E+002	1,6118059E-001
26/08/2025 20:11:28.0311	1,5901642E+002	1,6355692E-001
26/08/2025 20:11:31.0311	1,5910551E+002	1,6595596E-001
26/08/2025 20:11:34.0311	1,5908005E+002	1,6837266E-001
26/08/2025 20:11:37.0311	1,5905460E+002	1,7131697E-001
26/08/2025 20:11:40.0311	1,5903551E+002	1,7389300E-001
26/08/2025 20:11:43.0311	1,5907368E+002	1,7632510E-001
26/08/2025 20:11:46.0311	1,5910551E+002	1,7879476E-001
26/08/2025 20:11:49.0311	1,5915642E+002	1,8161564E-001
26/08/2025 20:11:52.0311	1,5911188E+002	1,8476890E-001
26/08/2025 20:11:55.0311	1,5907368E+002	1,8741286E-001
26/08/2025 20:11:58.0311	1,5906096E+002	1,9021915E-001
26/08/2025 20:12:01.0311	1,5908005E+002	1,9310941E-001
26/08/2025 20:12:04.0311	1,5908643E+002	1,9670290E-001
26/08/2025 20:12:06.9315	1,0523378E-001	9,7696036E-002
26/08/2025 20:12:09.9315	1,5614443E-001	8,4042571E-002
26/08/2025 20:12:12.9315	1,4341676E-001	7,5027533E-002
26/08/2025 20:12:15.9315	7,3414646E-002	6,8154201E-002
26/08/2025 20:12:18.9315	7,9778478E-002	6,2784396E-002
26/08/2025 20:12:21.9315	1,1796144E-001	5,8178246E-002
26/08/2025 20:12:24.9315	4,7959324E-002	5,4121446E-002
26/08/2025 20:12:27.9315	1,2432528E-001	5,0515898E-002
26/08/2025 20:12:30.9315	1,4341676E-001	4,7413245E-002
26/08/2025 20:12:33.9315	1,1159762E-001	4,4669174E-002
26/08/2025 20:12:36.9315	1,1159762E-001	4,2114764E-002
26/08/2025 20:12:39.9315	1,8159975E-001	3,9744589E-002
26/08/2025 20:12:42.9315	1,0523378E-001	3,7568513E-002
26/08/2025 20:12:45.9315	7,3414646E-002	3,5680264E-002
26/08/2025 20:12:48.9315	1,8159975E-001	3,3908717E-002
26/08/2025 20:12:51.9315	8,6142294E-002	3,2235686E-002
26/08/2025 20:12:54.9315	1,0523378E-001	3,0671604E-002
26/08/2025 20:12:57.9315	1,5614443E-001	2,9274529E-002
26/08/2025 20:13:00.9315	1,6250826E-001	2,8007522E-002
26/08/2025 20:13:03.9315	1,3705294E-001	2,6817223E-002
26/08/2025 20:13:06.9315	1,6250826E-001	2,5661454E-002
26/08/2025 20:13:09.9315	1,3068911E-001	2,4579372E-002
26/08/2025 20:13:12.9315	1,6887209E-001	2,3648754E-002
26/08/2025 20:13:15.9315	1,6887209E-001	2,2755302E-002
26/08/2025 20:13:18.9315	1,4978060E-001	2,1899976E-002
26/08/2025 20:13:21.9315	1,0523378E-001	2,1065349E-002
26/08/2025 20:13:24.9315	9,2506140E-002	2,0329816E-002
26/08/2025 20:13:27.9315	1,9432738E-001	1,9646004E-002
26/08/2025 20:13:30.9315	1,8159975E-001	1,8984882E-002
26/08/2025 20:13:33.9315	1,3068911E-001	1,8339081E-002
26/08/2025 20:13:36.9315	1,1796144E-001	1,7708328E-002
26/08/2025 20:13:39.9315	6,7050815E-002	1,7162416E-002
26/08/2025 20:13:42.9315	7,9778478E-002	1,6614556E-002
26/08/2025 20:13:45.9315	1,8796356E-001	1,6090879E-002
26/08/2025 20:13:48.9315	1,0523378E-001	1,5559522E-002
26/08/2025 20:13:51.9315	1,1159762E-001	1,5070719E-002
26/08/2025 20:13:54.9315	1,4341676E-001	1,4634326E-002
26/08/2025 20:13:57.9315	9,8869957E-002	1,4189988E-002
26/08/2025 20:14:00.9315	9,8869957E-002	1,3740302E-002
26/08/2025 20:14:03.9315	1,7523590E-001	1,3318043E-002
26/08/2025 20:14:06.8317	-1,5888866E+002	-6,8148836E-002
26/08/2025 20:14:09.8317	-1,5881865E+002	-8,0598935E-002
26/08/2025 20:14:12.8317	-1,5885684E+002	-8,9880988E-002
26/08/2025 20:14:15.8317	-1,5889502E+002	-9,7623408E-002
26/08/2025 20:14:18.8317	-1,5885684E+002	-1,0458671E-001
26/08/2025 20:14:21.8317	-1,5885684E+002	-1,1094118E-001
26/08/2025 20:14:24.8317	-1,5895866E+002	-1,1634658E-001
26/08/2025 20:14:27.8317	-1,5885684E+002	-1,2144221E-001
26/08/2025 20:14:30.8317	-1,5888231E+002	-1,2616149E-001
26/08/2025 20:14:33.8317	-1,5887593E+002	-1,3101161E-001
26/08/2025 20:14:36.8317	-1,5886320E+002	-1,3526483E-001
26/08/2025 20:14:39.8317	-1,5888231E+002	-1,3921587E-001
26/08/2025 20:14:42.8317	-1,5891411E+002	-1,4297040E-001
26/08/2025 20:14:45.8317	-1,5888231E+002	-1,4682344E-001
26/08/2025 20:14:48.8317	-1,5886957E+002	-1,5071346E-001
26/08/2025 20:14:51.8317	-1,5881865E+002	-1,5400064E-001
26/08/2025 20:14:54.8317	-1,5887593E+002	-1,5727638E-001
26/08/2025 20:14:57.8317	-1,5890776E+002	-1,6038266E-001
26/08/2025 20:15:00.8317	-1,5886320E+002	-1,6397430E-001
26/08/2025 20:15:03.8317	-1,5886320E+002	-1,6713719E-001
26/08/2025 20:15:06.8317	-1,5890138E+002	-1,7014600E-001
26/08/2025 20:15:09.8317	-1,5892683E+002	-1,7307912E-001
26/08/2025 20:15:12.8317	-1,5892049E+002	-1,7633660E-001
26/08/2025 20:15:15.8317	-1,5883139E+002	-1,7985554E-001
26/08/2025 20:15:18.8317	-1,5894594E+002	-1,8286930E-001
26/08/2025 20:15:21.8317	-1,5881865E+002	-1,8593359E-001
26/08/2025 20:15:24.8317	-1,5878685E+002	-1,8894647E-001
26/08/2025 20:15:27.8317	-1,5881865E+002	-1,9260913E-001
26/08/2025 20:15:30.8317	-1,5885048E+002	-1,9589962E-001
26/08/2025 20:15:33.8317	-1,5884413E+002	-1,9902247E-001
26/08/2025 20:15:36.8317	-1,5886957E+002	-2,0203853E-001
26/08/2025 20:15:39.8317	-1,5892049E+002	-2,0549113E-001
26/08/2025 20:15:42.8317	-1,5889502E+002	-2,0922261E-001
26/08/2025 20:15:45.8317	-1,5892049E+002	-2,1244766E-001
26/08/2025 20:15:48.8317	-1,5891411E+002	-2,1573249E-001
26/08/2025 20:15:51.8317	-1,5892049E+002	-2,1905479E-001
26/08/2025 20:15:54.8317	-1,5885684E+002	-2,2327401E-001
26/08/2025 20:15:57.8317	-1,5886320E+002	-2,2727530E-001
26/08/2025 20:16:00.8317	-1,5885684E+002	-2,3134299E-001
26/08/2025 20:16:03.8317	-1,5883774E+002	-2,3550916E-001
26/08/2025 20:16:06.7319	1,8565540E+002	-7,9043768E-003
26/08/2025 20:16:09.7319	1,8566812E+002	2,1326292E-002
26/08/2025 20:16:12.7319	1,8564267E+002	3,9929327E-002
26/08/2025 20:16:15.7319	1,8551540E+002	5,4587442E-002
26/08/2025 20:16:18.7319	1,8564905E+002	6,6835470E-002
26/08/2025 20:16:21.7319	1,8567448E+002	7,7741347E-002
26/08/2025 20:16:24.7319	1,8564267E+002	8,7361433E-002
26/08/2025 20:16:27.7319	1,8562360E+002	9,5992565E-002
26/08/2025 20:16:30.7319	1,8559177E+002	1,0400070E-001
26/08/2025 20:16:33.7319	1,8566177E+002	1,1152488E-001
26/08/2025 20:16:36.7319	1,8562360E+002	1,1881249E-001
26/08/2025 20:16:39.7319	1,8557268E+002	1,2526059E-001
26/08/2025 20:16:42.7319	1,8559813E+002	1,3139991E-001
26/08/2025 20:16:45.7319	1,8560449E+002	1,3712968E-001
26/08/2025 20:16:48.7319	1,8563631E+002	1,4289942E-001
26/08/2025 20:16:51.7319	1,8563631E+002	1,4830357E-001
26/08/2025 20:16:54.7319	1,8565540E+002	1,5312921E-001
26/08/2025 20:16:57.7319	1,8566177E+002	1,5773414E-001
26/08/2025 20:17:00.7319	1,8565540E+002	1,6222973E-001
26/08/2025 20:17:03.7319	1,8566177E+002	1,6689350E-001
26/08/2025 20:17:06.7319	1,8562360E+002	1,7091778E-001
26/08/2025 20:17:09.7319	1,8561086E+002	1,7473470E-001
26/08/2025 20:17:12.7319	1,8557903E+002	1,7830220E-001
26/08/2025 20:17:15.7319	1,8564905E+002	1,8219231E-001
26/08/2025 20:17:18.7319	1,8559177E+002	1,8597677E-001
26/08/2025 20:17:21.7319	1,8562360E+002	1,8927206E-001
26/08/2025 20:17:24.7319	1,8557903E+002	1,9250135E-001
26/08/2025 20:17:27.7319	1,8564267E+002	1,9592400E-001
26/08/2025 20:17:30.7319	1,8564905E+002	1,9981275E-001
26/08/2025 20:17:33.7319	1,8565540E+002	2,0328453E-001
26/08/2025 20:17:36.7319	1,8561722E+002	2,0675409E-001
26/08/2025 20:17:39.7319	1,8564267E+002	2,1019240E-001
26/08/2025 20:17:42.7319	1,8565540E+002	2,1431105E-001
26/08/2025 20:17:45.7319	1,8568088E+002	2,1863353E-001
26/08/2025 20:17:48.7319	1,8562360E+002	2,2262304E-001
26/08/2025 20:17:51.7319	1,8562360E+002	2,2669603E-001
26/08/2025 20:17:54.7319	1,8564905E+002	2,3117714E-001
26/08/2025 20:17:57.7319	1,8562994E+002	2,3637417E-001
26/08/2025 20:18:00.7319	1,8566177E+002	2,4126816E-001
26/08/2025 20:18:03.7319	1,8566812E+002	2,4623740E-001
26/08/2025 20:18:06.6323	9,8869957E-002	1,2036589E-001
26/08/2025 20:18:09.6323	1,8796356E-001	1,0197791E-001
26/08/2025 20:18:12.6323	1,2432528E-001	9,0948723E-002
26/08/2025 20:18:15.6323	1,1159762E-001	8,2699165E-002
26/08/2025 20:18:18.6323	1,4978060E-001	7,5944327E-002
26/08/2025 20:18:21.6323	1,3068911E-001	7,0312552E-002
26/08/2025 20:18:24.6323	1,2432528E-001	6,5546654E-002
26/08/2025 20:18:27.6323	9,8869957E-002	6,1465133E-002
26/08/2025 20:18:30.6323	1,7523590E-001	5,7675384E-002
26/08/2025 20:18:33.6323	1,9432738E-001	5,4208271E-002
26/08/2025 20:18:36.6323	1,4341676E-001	5,1136218E-002
26/08/2025 20:18:39.6323	1,5614443E-001	4,8435390E-002
26/08/2025 20:18:42.6323	1,4341676E-001	4,5897257E-002
26/08/2025 20:18:45.6323	1,1159762E-001	4,3500915E-002
26/08/2025 20:18:48.6323	1,4341676E-001	4,1322503E-002
26/08/2025 20:18:51.6323	1,3068911E-001	3,9350335E-002
26/08/2025 20:18:54.6323	1,8159975E-001	3,7597235E-002
26/08/2025 20:18:57.6323	1,1159762E-001	3,5869889E-002
26/08/2025 20:19:00.6323	1,4341676E-001	3,4251790E-002
26/08/2025 20:19:03.6323	9,8869957E-002	3,2797948E-002
26/08/2025 20:19:06.6323	1,4341676E-001	3,1489458E-002
26/08/2025 20:19:09.6323	5,4323155E-002	3,0239565E-002
26/08/2025 20:19:12.6323	1,5614443E-001	2,9034596E-002
26/08/2025 20:19:15.6323	9,2506140E-002	2,7926693E-002
26/08/2025 20:19:18.6323	1,3705294E-001	2,6909245E-002
26/08/2025 20:19:21.6323	7,9778478E-002	2,6004067E-002
26/08/2025 20:19:24.6323	9,2506140E-002	2,5086014E-002
26/08/2025 20:19:27.6323	1,2432528E-001	2,4204941E-002
26/08/2025 20:19:30.6323	1,5614443E-001	2,3393236E-002
26/08/2025 20:19:33.6323	1,3705294E-001	2,2665458E-002
26/08/2025 20:19:36.6323	3,5231672E-002	2,1946654E-002
26/08/2025 20:19:39.6323	1,5614443E-001	2,1237822E-002
26/08/2025 20:19:42.6323	9,8869957E-002	2,0569634E-002
26/08/2025 20:19:45.6323	2,1341887E-001	1,9931661E-002
26/08/2025 20:19:48.6323	9,2506140E-002	1,9373145E-002
26/08/2025 20:19:51.6323	1,1796144E-001	1,8785670E-002
26/08/2025 20:19:54.6323	7,3414646E-002	1,8220203E-002
26/08/2025 20:19:57.6323	1,3068911E-001	1,7670508E-002
26/08/2025 20:20:00.6323	4,1595493E-002	1,7174069E-002
26/08/2025 20:20:03.6323	1,0523378E-001	1,6682476E-002
26/08/2025 20:20:06.5325	-1,8532401E+002	-7,6296397E-002
26/08/2025 20:20:09.5325	-1,8530492E+002	-9,1706663E-002
26/08/2025 20:20:12.5325	-1,8533673E+002	-1,0326466E-001
26/08/2025 20:20:15.5325	-1,8538129E+002	-1,1280287E-001
26/08/2025 20:20:18.5325	-1,8529218E+002	-1,2087201E-001
26/08/2025 20:20:21.5325	-1,8529855E+002	-1,2814267E-001
26/08/2025 20:20:24.5325	-1,8529218E+002	-1,3490774E-001
26/08/2025 20:20:27.5325	-1,8536220E+002	-1,4160036E-001
26/08/2025 20:20:30.5325	-1,8536855E+002	-1,4739253E-001
26/08/2025 20:20:33.5325	-1,8530492E+002	-1,5280527E-001
26/08/2025 20:20:36.5325	-1,8535582E+002	-1,5801039E-001
26/08/2025 20:20:39.5325	-1,8536220E+002	-1,6324794E-001
26/08/2025 20:20:42.5325	-1,8538765E+002	-1,6839270E-001
26/08/2025 20:20:45.5325	-1,8531128E+002	-1,7289679E-001
26/08/2025 20:20:48.5325	-1,8527310E+002	-1,7725888E-001
26/08/2025 20:20:51.5325	-1,8529218E+002	-1,8165527E-001
26/08/2025 20:20:54.5325	-1,8530492E+002	-1,8648452E-001
26/08/2025 20:20:57.5325	-1,8543855E+002	-1,9077457E-001
26/08/2025 20:21:00.5325	-1,8538765E+002	-1,9488464E-001
26/08/2025 20:21:03.5325	-1,8537491E+002	-1,9915074E-001
26/08/2025 20:21:06.5325	-1,8536220E+002	-2,0378670E-001
26/08/2025 20:21:09.5325	-1,8538765E+002	-2,0878065E-001
26/08/2025 20:21:12.5325	-1,8534309E+002	-2,1318908E-001
26/08/2025 20:21:15.5325	-1,8535582E+002	-2,1760564E-001
26/08/2025 20:21:18.5325	-1,8533673E+002	-2,2220637E-001
26/08/2025 20:21:21.5325	-1,8527945E+002	-2,2745283E-001
26/08/2025 20:21:24.5325	-1,8533673E+002	-2,3216861E-001
26/08/2025 20:21:27.5325	-1,8533037E+002	-2,3657383E-001
26/08/2025 20:21:30.5325	-1,8531128E+002	-2,4120148E-001
26/08/2025 20:21:33.5325	-1,8531128E+002	-2,4630894E-001
26/08/2025 20:21:36.5325	-1,8538129E+002	-2,5218746E-001
26/08/2025 20:21:39.5325	-1,8534946E+002	-2,5758219E-001
26/08/2025 20:21:42.5325	-1,8537491E+002	-2,6346132E-001
26/08/2025 20:21:45.5325	-1,8533037E+002	-2,7044025E-001
26/08/2025 20:21:48.5325	-1,8529218E+002	-2,7966246E-001
26/08/2025 20:21:51.5325	-1,8534309E+002	-2,8982872E-001
26/08/2025 20:21:54.5325	-1,8535582E+002	-3,0115557E-001
26/08/2025 20:21:57.5325	-1,8536220E+002	-3,1432426E-001
26/08/2025 20:22:00.5325	-1,8538765E+002	-3,2906502E-001
26/08/2025 20:22:03.5325	-1,8534309E+002	-3,4308830E-001
26/08/2025 20:22:06.4327	2,1217349E+002	-1,7031990E-002
26/08/2025 20:22:09.4327	2,1213531E+002	2,0001376E-002
26/08/2025 20:22:12.4327	2,1213531E+002	4,2746890E-002
26/08/2025 20:22:15.4327	2,1218620E+002	6,0248323E-002
26/08/2025 20:22:18.4327	2,1217984E+002	7,4463479E-002
26/08/2025 20:22:21.4327	2,1215439E+002	8,6796425E-002
26/08/2025 20:22:24.4327	2,1212894E+002	9,7899184E-002
26/08/2025 20:22:27.4327	2,1214803E+002	1,0816713E-001
26/08/2025 20:22:30.4327	2,1218620E+002	1,1782557E-001
26/08/2025 20:22:33.4327	2,1212257E+002	1,2641980E-001
26/08/2025 20:22:36.4327	2,1210985E+002	1,3455357E-001
26/08/2025 20:22:39.4327	2,1217349E+002	1,4224797E-001
26/08/2025 20:22:42.4327	2,1210349E+002	1,4988801E-001
26/08/2025 20:22:45.4327	2,1213531E+002	1,5692037E-001
26/08/2025 20:22:48.4327	2,1215439E+002	1,6337161E-001
26/08/2025 20:22:51.4327	2,1212257E+002	1,6957706E-001
26/08/2025 20:22:54.4327	2,1209074E+002	1,7561142E-001
26/08/2025 20:22:57.4327	2,1213531E+002	1,8176745E-001
26/08/2025 20:23:00.4327	2,1214166E+002	1,8704243E-001
26/08/2025 20:23:03.4327	2,1209712E+002	1,9204138E-001
26/08/2025 20:23:06.4327	2,1214166E+002	1,9683293E-001
26/08/2025 20:23:09.4327	2,1218620E+002	2,0189632E-001
26/08/2025 20:23:12.4327	2,1207803E+002	2,0663193E-001
26/08/2025 20:23:15.4327	2,1217984E+002	2,1076971E-001
26/08/2025 20:23:18.4327	2,1212894E+002	2,1488138E-001
26/08/2025 20:23:21.4327	2,1214803E+002	2,1903333E-001
26/08/2025 20:23:24.4327	2,1212894E+002	2,2373512E-001
26/08/2025 20:23:27.4327	2,1218620E+002	2,2769223E-001
26/08/2025 20:23:30.4327	2,1215439E+002	2,3158401E-001
26/08/2025 20:23:33.4327	2,1219894E+002	2,3553959E-001
26/08/2025 20:23:36.4327	2,1214803E+002	2,4021068E-001
26/08/2025 20:23:39.4327	2,1217984E+002	2,4491462E-001
26/08/2025 20:23:42.4327	2,1219258E+002	2,4922778E-001
26/08/2025 20:23:45.4327	2,1212257E+002	2,5388011E-001
26/08/2025 20:23:48.4327	2,1215439E+002	2,5891182E-001
26/08/2025 20:23:51.4327	2,1216077E+002	2,6514557E-001
26/08/2025 20:23:54.4327	2,1219894E+002	2,7093562E-001
26/08/2025 20:23:57.4327	2,1217984E+002	2,7718577E-001
26/08/2025 20:24:00.4327	2,1218620E+002	2,8442761E-001
26/08/2025 20:24:03.4327	2,1212257E+002	2,9414546E-001
26/08/2025 20:24:06.3331	4,7959324E-002	1,4223693E-001
26/08/2025 20:24:09.3331	1,0523378E-001	1,1968635E-001
26/08/2025 20:24:12.3331	1,5614443E-001	1,0634089E-001
26/08/2025 20:24:15.3331	1,3068911E-001	9,6488781E-002
26/08/2025 20:24:18.3331	1,6887209E-001	8,8915855E-002
26/08/2025 20:24:21.3331	1,3705294E-001	8,2603402E-002
26/08/2025 20:24:24.3331	1,1796144E-001	7,6998517E-002
26/08/2025 20:24:27.3331	1,1159762E-001	7,2039708E-002
26/08/2025 20:24:30.3331	1,4978060E-001	6,7665704E-002
26/08/2025 20:24:33.3331	1,4978060E-001	6,3920341E-002
26/08/2025 20:24:36.3331	1,0523378E-001	6,0352989E-002
26/08/2025 20:24:39.3331	9,8869957E-002	5,7104953E-002
26/08/2025 20:24:42.3331	1,1159762E-001	5,4076828E-002
26/08/2025 20:24:45.3331	1,2432528E-001	5,1488418E-002
26/08/2025 20:24:48.3331	1,6250826E-001	4,9089868E-002
26/08/2025 20:24:51.3331	1,6250826E-001	4,6789177E-002
26/08/2025 20:24:54.3331	1,5614443E-001	4,4648279E-002
26/08/2025 20:24:57.3331	1,6887209E-001	4,2675879E-002
26/08/2025 20:25:00.3331	1,3068911E-001	4,0961366E-002
26/08/2025 20:25:03.3331	1,2432528E-001	3,9262474E-002
26/08/2025 20:25:06.3331	9,2506140E-002	3,7667718E-002
26/08/2025 20:25:09.3331	1,0523378E-001	3,6162760E-002
26/08/2025 20:25:12.3331	7,9778478E-002	3,4861799E-002
26/08/2025 20:25:15.3331	1,1796144E-001	3,3640824E-002
26/08/2025 20:25:18.3331	9,2506140E-002	3,2460839E-002
26/08/2025 20:25:21.3331	7,9778478E-002	3,1345025E-002
26/08/2025 20:25:24.3331	1,1159762E-001	3,0286169E-002
26/08/2025 20:25:27.3331	1,4978060E-001	2,9380992E-002
26/08/2025 20:25:30.3331	1,1159762E-001	2,8448576E-002
26/08/2025 20:25:33.3331	7,9778478E-002	2,7569029E-002
26/08/2025 20:25:36.3331	1,3068911E-001	2,6696665E-002
26/08/2025 20:25:39.3331	1,1159762E-001	2,5930723E-002
26/08/2025 20:25:42.3331	1,4978060E-001	2,5206190E-002
26/08/2025 20:25:45.3331	1,0523378E-001	2,4472110E-002
26/08/2025 20:25:48.3331	1,8796356E-001	2,3769196E-002
26/08/2025 20:25:51.3331	1,2432528E-001	2,3093102E-002
26/08/2025 20:25:54.3331	1,8796356E-001	2,2514874E-002
26/08/2025 20:25:57.3331	2,4523805E-001	2,1907270E-002
26/08/2025 20:26:00.3331	1,5614443E-001	2,1320945E-002
26/08/2025 20:26:03.3331	1,6887209E-001	2,0734960E-002
26/08/2025 20:26:06.2333	-2,1186754E+002	-8,3746627E-002
26/08/2025 20:26:09.2333	-2,1182300E+002	-1,0225886E-001
26/08/2025 20:26:12.2333	-2,1174026E+002	-1,1536466E-001
26/08/2025 20:26:15.2333	-2,1177846E+002	-1,2635382E-001
26/08/2025 20:26:18.2333	-2,1182935E+002	-1,3601334E-001
26/08/2025 20:26:21.2333	-2,1173389E+002	-1,4512645E-001
26/08/2025 20:26:24.2333	-2,1176572E+002	-1,5291724E-001
26/08/2025 20:26:27.2333	-2,1173389E+002	-1,6023445E-001
26/08/2025 20:26:30.2333	-2,1181664E+002	-1,6705187E-001
26/08/2025 20:26:33.2333	-2,1180389E+002	-1,7395836E-001
26/08/2025 20:26:36.2333	-2,1182300E+002	-1,8038754E-001
26/08/2025 20:26:39.2333	-2,1179755E+002	-1,8607643E-001
26/08/2025 20:26:42.2333	-2,1178482E+002	-1,9163145E-001
26/08/2025 20:26:45.2333	-2,1181027E+002	-1,9700398E-001
26/08/2025 20:26:48.2333	-2,1183574E+002	-2,0280562E-001
26/08/2025 20:26:51.2333	-2,1184845E+002	-2,0778272E-001
26/08/2025 20:26:54.2333	-2,1184209E+002	-2,1266940E-001
26/08/2025 20:26:57.2333	-2,1186118E+002	-2,1743615E-001
26/08/2025 20:27:00.2333	-2,1179117E+002	-2,2281274E-001
26/08/2025 20:27:03.2333	-2,1173389E+002	-2,2815084E-001
26/08/2025 20:27:06.2333	-2,1186118E+002	-2,3298787E-001
26/08/2025 20:27:09.2333	-2,1172119E+002	-2,3801400E-001
26/08/2025 20:27:12.2333	-2,1188026E+002	-2,4315019E-001
26/08/2025 20:27:15.2333	-2,1179755E+002	-2,4929927E-001
26/08/2025 20:27:18.2333	-2,1188026E+002	-2,5469673E-001
26/08/2025 20:27:21.2333	-2,1172754E+002	-2,6023704E-001
26/08/2025 20:27:24.2333	-2,1184209E+002	-2,6581988E-001
26/08/2025 20:27:27.2333	-2,1186118E+002	-2,7268085E-001
26/08/2025 20:27:30.2333	-2,1181027E+002	-2,8018364E-001
26/08/2025 20:27:33.2333	-2,1180389E+002	-2,8799203E-001
26/08/2025 20:27:36.2333	-2,1181664E+002	-2,9776260E-001
26/08/2025 20:27:39.2333	-2,1181027E+002	-3,1124815E-001
26/08/2025 20:27:42.2333	-2,1177846E+002	-3,3255813E-001
26/08/2025 20:27:45.2333	-2,1174664E+002	-3,5738644E-001
26/08/2025 20:27:48.2333	-2,1179117E+002	-3,7879562E-001
26/08/2025 20:27:51.2333	-2,1177846E+002	-3,9085001E-001
26/08/2025 20:27:54.2333	-2,1178482E+002	-4,1337100E-001
26/08/2025 20:27:57.2333	-2,1186754E+002	-4,4599915E-001
26/08/2025 20:28:00.2333	-2,1176572E+002	-4,8870784E-001
26/08/2025 20:28:03.2333	-2,1182300E+002	-5,4122287E-001
26/08/2025 20:28:06.1335	2,3851974E+002	-2,1865848E-002
26/08/2025 20:28:09.1335	2,3862791E+002	2,2818331E-002
26/08/2025 20:28:12.1335	2,3855792E+002	4,8171084E-002
26/08/2025 20:28:15.1335	2,3855792E+002	6,7269228E-002
26/08/2025 20:28:18.1335	2,3860883E+002	8,3094992E-002
26/08/2025 20:28:21.1335	2,3860883E+002	9,7042255E-002
26/08/2025 20:28:24.1335	2,3858974E+002	1,0963827E-001
26/08/2025 20:28:27.1335	2,3864066E+002	1,2069654E-001
26/08/2025 20:28:30.1335	2,3860883E+002	1,3114387E-001
26/08/2025 20:28:33.1335	2,3864066E+002	1,4091098E-001
26/08/2025 20:28:36.1335	2,3859610E+002	1,5043615E-001
26/08/2025 20:28:39.1335	2,3858337E+002	1,5911846E-001
26/08/2025 20:28:42.1335	2,3859610E+002	1,6726989E-001
26/08/2025 20:28:45.1335	2,3857701E+002	1,7503819E-001
26/08/2025 20:28:48.1335	2,3858337E+002	1,8271719E-001
26/08/2025 20:28:51.1335	2,3867249E+002	1,9025697E-001
26/08/2025 20:28:54.1335	2,3859610E+002	1,9689268E-001
26/08/2025 20:28:57.1335	2,3867249E+002	2,0327060E-001
26/08/2025 20:29:00.1335	2,3863429E+002	2,0928635E-001
26/08/2025 20:29:03.1335	2,3857701E+002	2,1559376E-001
26/08/2025 20:29:06.1335	2,3859610E+002	2,2121300E-001
26/08/2025 20:29:09.1335	2,3860246E+002	2,2632568E-001
26/08/2025 20:29:12.1335	2,3864700E+002	2,3117439E-001
26/08/2025 20:29:15.1335	2,3862155E+002	2,3619616E-001
26/08/2025 20:29:18.1335	2,3865338E+002	2,4139310E-001
26/08/2025 20:29:21.1335	2,3862155E+002	2,4574836E-001
26/08/2025 20:29:24.1335	2,3864066E+002	2,4997550E-001
26/08/2025 20:29:27.1335	2,3859610E+002	2,5398877E-001
26/08/2025 20:29:30.1335	2,3857701E+002	2,5875372E-001
26/08/2025 20:29:33.1335	2,3854518E+002	2,6307565E-001
26/08/2025 20:29:36.1335	2,3867249E+002	2,6706457E-001
26/08/2025 20:29:39.1335	2,3869156E+002	2,7099660E-001
26/08/2025 20:29:42.1335	2,3859610E+002	2,7550152E-001
26/08/2025 20:29:45.1335	2,3862155E+002	2,8067639E-001
26/08/2025 20:29:48.1335	2,3858974E+002	2,8533724E-001
26/08/2025 20:29:51.1335	2,3860883E+002	2,9027125E-001
26/08/2025 20:29:54.1335	2,3861520E+002	2,9570520E-001
26/08/2025 20:29:57.1335	2,3867883E+002	3,0312133E-001
26/08/2025 20:30:00.1335	2,3858337E+002	3,1167731E-001
26/08/2025 20:30:03.1335	2,3861520E+002	3,2263675E-001
26/08/2025 20:30:06.0339	1,0523378E-001	1,5344737E-001
26/08/2025 20:30:09.0339	1,2432528E-001	1,2672898E-001
26/08/2025 20:30:12.0339	1,1796144E-001	1,1211538E-001
26/08/2025 20:30:15.0339	8,6142294E-002	1,0177893E-001
26/08/2025 20:30:18.0339	9,2506140E-002	9,3389414E-002
26/08/2025 20:30:21.0339	1,6887209E-001	8,6416908E-002
26/08/2025 20:30:24.0339	1,1796144E-001	8,0596238E-002
26/08/2025 20:30:27.0339	1,4341676E-001	7,5634494E-002
26/08/2025 20:30:30.0339	1,1159762E-001	7,1088269E-002
26/08/2025 20:30:33.0339	1,8796356E-001	6,6949762E-002
26/08/2025 20:30:36.0339	1,5614443E-001	6,3262120E-002
26/08/2025 20:30:39.0339	1,5614443E-001	6,0028944E-002
26/08/2025 20:30:42.0339	1,2432528E-001	5,7129171E-002
26/08/2025 20:30:45.0339	1,3068911E-001	5,4320887E-002
26/08/2025 20:30:48.0339	1,8159975E-001	5,1724840E-002
26/08/2025 20:30:51.0339	1,6887209E-001	4,9415518E-002
26/08/2025 20:30:54.0339	1,2432528E-001	4,7341622E-002
26/08/2025 20:30:57.0339	5,4323155E-002	4,5340721E-002
26/08/2025 20:31:00.0339	1,4978060E-001	4,3405186E-002
26/08/2025 20:31:03.0339	9,8869957E-002	4,1650295E-002
26/08/2025 20:31:06.0339	1,6250826E-001	4,0066652E-002
26/08/2025 20:31:09.0339	7,3414646E-002	3,8663767E-002
26/08/2025 20:31:12.0339	1,3705294E-001	3,7242249E-002
26/08/2025 20:31:15.0339	1,8159975E-001	3,5903007E-002
26/08/2025 20:31:18.0339	1,1796144E-001	3,4689669E-002
26/08/2025 20:31:21.0339	1,4341676E-001	3,3622179E-002
26/08/2025 20:31:24.0339	6,7050815E-002	3,2566573E-002
26/08/2025 20:31:27.0339	1,3705294E-001	3,1506419E-002
26/08/2025 20:31:30.0339	1,8796356E-001	3,0523505E-002
26/08/2025 20:31:33.0339	1,2432528E-001	2,9611755E-002
26/08/2025 20:31:36.0339	1,2432528E-001	2,8813001E-002
26/08/2025 20:31:39.0339	1,4978060E-001	2,7970010E-002
26/08/2025 20:31:42.0339	8,6142294E-002	2,7168926E-002
26/08/2025 20:31:45.0339	6,0686987E-002	2,6423041E-002
26/08/2025 20:31:48.0339	1,6250826E-001	2,5743699E-002
26/08/2025 20:31:51.0339	1,5614443E-001	2,5070200E-002
26/08/2025 20:31:54.0339	1,1796144E-001	2,4374889E-002
26/08/2025 20:31:57.0339	9,8869957E-002	2,3718048E-002
26/08/2025 20:32:00.0339	1,0523378E-001	2,3096157E-002
26/08/2025 20:32:03.0339	1,0523378E-001	2,2562928E-002
26/08/2025 20:32:05.9341	-2,3829652E+002	-9,1767788E-002
26/08/2025 20:32:08.9341	-2,3825835E+002	-1,1361519E-001
26/08/2025 20:32:11.9341	-2,3833472E+002	-1,2916455E-001
26/08/2025 20:32:14.9341	-2,3829652E+002	-1,4224097E-001
26/08/2025 20:32:17.9341	-2,3830923E+002	-1,5312266E-001
26/08/2025 20:32:20.9341	-2,3839198E+002	-1,6298845E-001
26/08/2025 20:32:23.9341	-2,3831561E+002	-1,7210345E-001
26/08/2025 20:32:26.9341	-2,3832198E+002	-1,8099479E-001
26/08/2025 20:32:29.9341	-2,3827106E+002	-1,8914072E-001
26/08/2025 20:32:32.9341	-2,3830289E+002	-1,9647521E-001
26/08/2025 20:32:35.9341	-2,3833472E+002	-2,0337777E-001
26/08/2025 20:32:38.9341	-2,3828378E+002	-2,1018341E-001
26/08/2025 20:32:41.9341	-2,3825835E+002	-2,1712948E-001
26/08/2025 20:32:44.9341	-2,3829652E+002	-2,2311881E-001
26/08/2025 20:32:47.9341	-2,3832198E+002	-2,2879027E-001
26/08/2025 20:32:50.9341	-2,3823926E+002	-2,3432444E-001
26/08/2025 20:32:53.9341	-2,3829016E+002	-2,4015878E-001
26/08/2025 20:32:56.9341	-2,3826471E+002	-2,4580128E-001
26/08/2025 20:32:59.9341	-2,3828378E+002	-2,5068256E-001
26/08/2025 20:33:02.9341	-2,3839835E+002	-2,5539169E-001
26/08/2025 20:33:05.9341	-2,3828378E+002	-2,6033324E-001
26/08/2025 20:33:08.9341	-2,3832198E+002	-2,6588997E-001
26/08/2025 20:33:11.9341	-2,3829652E+002	-2,7072424E-001
26/08/2025 20:33:14.9341	-2,3827106E+002	-2,7545726E-001
26/08/2025 20:33:17.9341	-2,3824561E+002	-2,8047153E-001
26/08/2025 20:33:20.9341	-2,3833472E+002	-2,8643736E-001
26/08/2025 20:33:23.9341	-2,3833472E+002	-2,9313654E-001
26/08/2025 20:33:26.9341	-2,3836652E+002	-2,9988411E-001
26/08/2025 20:33:29.9341	-2,3831561E+002	-3,0795109E-001
26/08/2025 20:33:32.9341	-2,3830923E+002	-3,1934264E-001
26/08/2025 20:33:35.9341	-2,3823926E+002	-3,3679458E-001
26/08/2025 20:33:38.9341	-2,3832198E+002	-3,5956135E-001
26/08/2025 20:33:41.9341	-2,3827744E+002	-3,9177644E-001
26/08/2025 20:33:44.9341	-2,3825197E+002	-4,4362125E-001
26/08/2025 20:33:47.9341	-2,3834743E+002	-5,1970935E-001
26/08/2025 20:33:50.9341	-2,3827106E+002	-6,2484556E-001
26/08/2025 20:33:53.9341	-2,3827744E+002	-7,5633729E-001
26/08/2025 20:33:56.5659	2,6508234E+002	-1,3559719E-002
26/08/2025 20:33:59.5659	2,6508234E+002	3,2933749E-002
26/08/2025 20:34:02.5659	2,6506961E+002	5,9936192E-002
26/08/2025 20:34:05.5659	2,6513962E+002	8,0501348E-002
26/08/2025 20:34:08.5659	2,6510147E+002	9,7168043E-002
26/08/2025 20:34:11.5659	2,6517783E+002	1,1191425E-001
26/08/2025 20:34:14.5659	2,6510782E+002	1,2526880E-001
26/08/2025 20:34:17.5659	2,6506961E+002	1,3789929E-001
26/08/2025 20:34:20.5659	2,6510782E+002	1,4966993E-001
26/08/2025 20:34:23.5659	2,6510782E+002	1,6036105E-001
26/08/2025 20:34:26.5659	2,6502505E+002	1,7066441E-001
26/08/2025 20:34:29.5659	2,6508871E+002	1,8050392E-001
26/08/2025 20:34:32.5659	2,6512689E+002	1,9036178E-001
26/08/2025 20:34:35.5659	2,6514597E+002	1,9932221E-001
26/08/2025 20:34:38.5659	2,6512054E+002	2,0787948E-001
26/08/2025 20:34:41.5659	2,6512054E+002	2,1602125E-001
26/08/2025 20:34:44.5659	2,6511420E+002	2,2421263E-001
26/08/2025 20:34:47.5659	2,6513962E+002	2,3222473E-001
26/08/2025 20:34:50.5659	2,6513327E+002	2,3925871E-001
26/08/2025 20:34:53.5659	2,6511420E+002	2,4604788E-001
26/08/2025 20:34:56.5659	2,6506961E+002	2,5249109E-001
26/08/2025 20:34:59.5659	2,6510147E+002	2,5941110E-001
26/08/2025 20:35:02.5659	2,6512054E+002	2,6546368E-001
26/08/2025 20:35:05.5659	2,6508871E+002	2,7114213E-001
26/08/2025 20:35:08.5659	2,6513327E+002	2,7654228E-001
26/08/2025 20:35:11.5659	2,6515872E+002	2,8237256E-001
26/08/2025 20:35:14.5659	2,6512689E+002	2,8849611E-001
26/08/2025 20:35:17.5659	2,6509509E+002	2,9374462E-001
26/08/2025 20:35:20.5659	2,6515237E+002	2,9901639E-001
26/08/2025 20:35:23.5659	2,6514597E+002	3,0430752E-001
26/08/2025 20:35:26.5659	2,6511420E+002	3,1085122E-001
26/08/2025 20:35:29.5659	2,6510782E+002	3,1695825E-001
26/08/2025 20:35:32.5659	2,6510782E+002	3,2323617E-001
26/08/2025 20:35:35.5659	2,6506326E+002	3,3003071E-001
26/08/2025 20:35:38.5659	2,6511420E+002	3,3916244E-001
26/08/2025 20:35:41.5659	2,6517783E+002	3,5200298E-001
26/08/2025 20:35:44.5659	2,6516510E+002	3,7033623E-001
26/08/2025 20:35:47.5659	2,6508234E+002	3,9906690E-001
26/08/2025 20:35:50.5659	2,6510147E+002	4,4203025E-001
26/08/2025 20:35:53.5659	2,6511420E+002	5,3508091E-001
26/08/2025 20:35:56.4661	1,4341676E-001	2,0046774E-001
26/08/2025 20:35:59.4661	1,4341676E-001	1,6307889E-001
26/08/2025 20:36:02.4661	1,3068911E-001	1,4276937E-001
26/08/2025 20:36:05.4661	1,0523378E-001	1,2852944E-001
26/08/2025 20:36:08.4661	1,3705294E-001	1,1767942E-001
26/08/2025 20:36:11.4661	1,1796144E-001	1,0881935E-001
26/08/2025 20:36:14.4661	1,0523378E-001	1,0107954E-001
26/08/2025 20:36:17.4661	1,3068911E-001	9,4299972E-002
26/08/2025 20:36:20.4661	1,6887209E-001	8,8482782E-002
26/08/2025 20:36:23.4661	1,4978060E-001	8,3448380E-002
26/08/2025 20:36:26.4661	1,7523590E-001	7,8760400E-002
26/08/2025 20:36:29.4661	1,8159975E-001	7,4437611E-002
26/08/2025 20:36:32.4661	1,2432528E-001	7,0541784E-002
26/08/2025 20:36:35.4661	1,6887209E-001	6,7088999E-002
26/08/2025 20:36:38.4661	1,2432528E-001	6,3917018E-002
26/08/2025 20:36:41.4661	1,1159762E-001	6,0851227E-002
26/08/2025 20:36:44.4661	1,8159975E-001	5,7969254E-002
26/08/2025 20:36:47.4661	6,7050815E-002	5,5410568E-002
26/08/2025 20:36:50.4661	1,3705294E-001	5,3100370E-002
26/08/2025 20:36:53.4661	1,3068911E-001	5,0888341E-002
26/08/2025 20:36:56.4661	9,8869957E-002	4,8753288E-002
26/08/2025 20:36:59.4661	9,2506140E-002	4,6834253E-002
26/08/2025 20:37:02.4661	1,1796144E-001	4,5104649E-002
26/08/2025 20:37:05.4661	1,1796144E-001	4,3514363E-002
26/08/2025 20:37:08.4661	1,4341676E-001	4,1930605E-002
26/08/2025 20:37:11.4661	1,4341676E-001	4,0410411E-002
26/08/2025 20:37:14.4661	1,3068911E-001	3,9031595E-002
26/08/2025 20:37:17.4661	1,8796356E-001	3,7791785E-002
26/08/2025 20:37:20.4661	1,4978060E-001	3,6576543E-002
26/08/2025 20:37:23.4661	1,3705294E-001	3,5376195E-002
26/08/2025 20:37:26.4661	1,7523590E-001	3,4272149E-002
26/08/2025 20:37:29.4661	1,4978060E-001	3,3264138E-002
26/08/2025 20:37:32.4661	2,0069122E-001	3,2358654E-002
26/08/2025 20:37:35.4661	1,4978060E-001	3,1434491E-002
26/08/2025 20:37:38.4661	1,6250826E-001	3,0493174E-002
26/08/2025 20:37:41.4661	1,4978060E-001	2,9638648E-002
26/08/2025 20:37:44.4661	1,3068911E-001	2,8849443E-002
26/08/2025 20:37:47.4661	5,4323155E-002	2,8070858E-002
26/08/2025 20:37:50.4661	1,6887209E-001	2,7278749E-002
26/08/2025 20:37:53.4661	1,1159762E-001	2,6555439E-002
26/08/2025 20:37:56.3663	-2,6477005E+002	-9,9125043E-002
26/08/2025 20:37:59.3663	-2,6477005E+002	-1,2307105E-001
26/08/2025 20:38:02.3663	-2,6471277E+002	-1,4007142E-001
26/08/2025 20:38:05.3663	-2,6478915E+002	-1,5413088E-001
26/08/2025 20:38:08.3663	-2,6483371E+002	-1,6685964E-001
26/08/2025 20:38:11.3663	-2,6481461E+002	-1,7856683E-001
26/08/2025 20:38:14.3663	-2,6472549E+002	-1,8881008E-001
26/08/2025 20:38:17.3663	-2,6475095E+002	-1,9843657E-001
26/08/2025 20:38:20.3663	-2,6477643E+002	-2,0754187E-001
26/08/2025 20:38:23.3663	-2,6480188E+002	-2,1668912E-001
26/08/2025 20:38:26.3663	-2,6475732E+002	-2,2504079E-001
26/08/2025 20:38:29.3663	-2,6476367E+002	-2,3274374E-001
26/08/2025 20:38:32.3663	-2,6478915E+002	-2,4002804E-001
26/08/2025 20:38:35.3663	-2,6482095E+002	-2,4740028E-001
26/08/2025 20:38:38.3663	-2,6480188E+002	-2,5488484E-001
26/08/2025 20:38:41.3663	-2,6474460E+002	-2,6137781E-001
26/08/2025 20:38:44.3663	-2,6473825E+002	-2,6757172E-001
26/08/2025 20:38:47.3663	-2,6486551E+002	-2,7371421E-001
26/08/2025 20:38:50.3663	-2,6479550E+002	-2,8040230E-001
26/08/2025 20:38:53.3663	-2,6480188E+002	-2,8683096E-001
26/08/2025 20:38:56.3663	-2,6476367E+002	-2,9268566E-001
26/08/2025 20:38:59.3663	-2,6473825E+002	-2,9851234E-001
26/08/2025 20:39:02.3663	-2,6473825E+002	-3,0505565E-001
26/08/2025 20:39:05.3663	-2,6475732E+002	-3,1260377E-001
26/08/2025 20:39:08.3663	-2,6475732E+002	-3,1987068E-001
26/08/2025 20:39:11.3663	-2,6475732E+002	-3,2811311E-001
26/08/2025 20:39:14.3663	-2,6477643E+002	-3,3931276E-001
26/08/2025 20:39:17.3663	-2,6478915E+002	-3,5768086E-001
26/08/2025 20:39:20.3663	-2,6482095E+002	-3,8735056E-001
26/08/2025 20:39:23.3663	-2,6477643E+002	-4,3450803E-001
26/08/2025 20:39:26.3663	-2,6482733E+002	-5,0219518E-001
26/08/2025 20:39:29.3663	-2,6475095E+002	-6,1213917E-001
26/08/2025 20:39:32.1603	-8,6195765E+000	-6,9254071E-001
26/08/2025 20:39:35.0605	2,9156223E+002	2,2839379E-002
26/08/2025 20:39:38.0605	2,9156860E+002	5,9644729E-002
26/08/2025 20:39:41.0605	2,9159409E+002	8,4611252E-002
26/08/2025 20:39:44.0605	2,9160043E+002	1,0463803E-001
26/08/2025 20:39:47.0605	2,9168951E+002	1,2219094E-001
26/08/2025 20:39:50.0605	2,9159409E+002	1,3763805E-001
26/08/2025 20:39:53.0605	2,9151773E+002	1,5178360E-001
26/08/2025 20:39:56.0605	2,9162585E+002	1,6513780E-001
26/08/2025 20:39:59.0605	2,9155588E+002	1,7805639E-001
26/08/2025 20:40:02.0605	2,9159409E+002	1,9057907E-001
26/08/2025 20:40:05.0605	2,9158771E+002	2,0193364E-001
26/08/2025 20:40:08.0605	2,9158136E+002	2,1300860E-001
26/08/2025 20:40:11.0605	2,9161951E+002	2,2366703E-001
26/08/2025 20:40:14.0605	2,9165771E+002	2,3447822E-001
26/08/2025 20:40:17.0605	2,9157498E+002	2,4448392E-001
26/08/2025 20:40:20.0605	2,9160678E+002	2,5380245E-001
26/08/2025 20:40:23.0605	2,9153043E+002	2,6277721E-001
26/08/2025 20:40:26.0605	2,9162585E+002	2,7166313E-001
26/08/2025 20:40:29.0605	2,9159409E+002	2,8074753E-001
26/08/2025 20:40:32.0605	2,9161316E+002	2,8854904E-001
26/08/2025 20:40:35.0605	2,9151773E+002	2,9620799E-001
26/08/2025 20:40:38.0605	2,9163226E+002	3,0359954E-001
26/08/2025 20:40:41.0605	2,9164499E+002	3,1177559E-001
26/08/2025 20:40:44.0605	2,9153680E+002	3,1942263E-001
26/08/2025 20:40:47.0605	2,9163226E+002	3,2655615E-001
26/08/2025 20:40:50.0605	2,9160678E+002	3,3391362E-001
26/08/2025 20:40:53.0605	2,9156860E+002	3,4182677E-001
26/08/2025 20:40:56.0605	2,9159409E+002	3,5116664E-001
26/08/2025 20:40:59.0605	2,9161951E+002	3,5952333E-001
26/08/2025 20:41:02.0605	2,9163861E+002	3,6882520E-001
26/08/2025 20:41:05.0605	2,9158771E+002	3,7959716E-001
26/08/2025 20:41:08.0605	2,9156223E+002	3,9622033E-001
26/08/2025 20:41:11.0605	2,9163226E+002	4,2308897E-001
26/08/2025 20:41:14.0605	2,9163861E+002	4,6349275E-001
26/08/2025 20:41:17.0605	2,9160678E+002	5,2600902E-001
26/08/2025 20:41:20.0605	2,9160043E+002	6,4207059E-001
26/08/2025 20:41:22.9529	-2,9133267E+002	8,4470250E-002
26/08/2025 20:41:25.9529	-2,9138995E+002	-1,8286349E-002
26/08/2025 20:41:28.9529	-2,9128812E+002	-5,3978793E-002
26/08/2025 20:41:31.9529	-2,9131995E+002	-7,8443713E-002
26/08/2025 20:41:34.9529	-2,9138995E+002	-9,8324411E-002
26/08/2025 20:41:37.9529	-2,9134540E+002	-1,1530297E-001
26/08/2025 20:41:40.9529	-2,9128812E+002	-1,3019674E-001
26/08/2025 20:41:43.9529	-2,9135812E+002	-1,4408065E-001
26/08/2025 20:41:46.9529	-2,9128177E+002	-1,5710618E-001
26/08/2025 20:41:49.9529	-2,9135812E+002	-1,6989918E-001
26/08/2025 20:41:52.9529	-2,9134540E+002	-1,8153101E-001
26/08/2025 20:41:55.9529	-2,9135178E+002	-1,9267374E-001
26/08/2025 20:41:58.9529	-2,9131995E+002	-2,0337811E-001
26/08/2025 20:42:01.9529	-2,9132629E+002	-2,1413299E-001
26/08/2025 20:42:04.9529	-2,9131360E+002	-2,2453073E-001
26/08/2025 20:42:07.9529	-2,9124994E+002	-2,3393439E-001
26/08/2025 20:42:10.9529	-2,9125632E+002	-2,4311322E-001
26/08/2025 20:42:13.9529	-2,9133902E+002	-2,5188577E-001
26/08/2025 20:42:16.9529	-2,9138358E+002	-2,6112345E-001
26/08/2025 20:42:19.9529	-2,9133267E+002	-2,6929417E-001
26/08/2025 20:42:22.9529	-2,9130084E+002	-2,7697599E-001
26/08/2025 20:42:25.9529	-2,9131995E+002	-2,8423181E-001
26/08/2025 20:42:28.9529	-2,9137723E+002	-2,9184821E-001
26/08/2025 20:42:31.9529	-2,9130084E+002	-2,9950222E-001
26/08/2025 20:42:34.9529	-2,9133902E+002	-3,0613378E-001
26/08/2025 20:42:37.9529	-2,9133902E+002	-3,1272808E-001
26/08/2025 20:42:40.9529	-2,9126904E+002	-3,1918952E-001
26/08/2025 20:42:43.9529	-2,9133902E+002	-3,2693204E-001
26/08/2025 20:42:46.9529	-2,9130084E+002	-3,3396772E-001
26/08/2025 20:42:49.9529	-2,9131995E+002	-3,4086806E-001
26/08/2025 20:42:52.9529	-2,9136447E+002	-3,4780201E-001
26/08/2025 20:42:55.9529	-2,9127539E+002	-3,5625207E-001
26/08/2025 20:42:58.9529	-2,9132629E+002	-3,6616606E-001
26/08/2025 20:43:01.9529	-2,9135812E+002	-3,7674910E-001
26/08/2025 20:43:04.9529	-2,9132629E+002	-3,9240587E-001
26/08/2025 20:43:07.9529	-2,9130722E+002	-4,2019242E-001
26/08/2025 20:43:10.9529	-2,9131995E+002	-4,6997651E-001
26/08/2025 20:43:13.9529	-2,9136447E+002	-5,5033726E-001
26/08/2025 20:43:16.9529	-2,9134540E+002	-6,7670929E-001
26/08/2025 20:43:19.7337	3,1813760E+002	-2,7640678E-002
26/08/2025 20:43:22.7337	3,1824579E+002	4,6128131E-002
26/08/2025 20:43:25.7337	3,1816940E+002	8,0264166E-002
26/08/2025 20:43:28.7337	3,1816302E+002	1,0457201E-001
26/08/2025 20:43:31.7337	3,1816302E+002	1,2473409E-001
26/08/2025 20:43:34.7337	3,1811853E+002	1,4258008E-001
26/08/2025 20:43:37.7337	3,1813760E+002	1,5925303E-001
26/08/2025 20:43:40.7337	3,1820123E+002	1,7502636E-001
26/08/2025 20:43:43.7337	3,1817581E+002	1,8946995E-001
26/08/2025 20:43:46.7337	3,1817581E+002	2,0343615E-001
26/08/2025 20:43:49.7337	3,1820123E+002	2,1693422E-001
26/08/2025 20:43:52.7337	3,1819489E+002	2,3042491E-001
26/08/2025 20:43:55.7337	3,1819489E+002	2,4314919E-001
26/08/2025 20:43:58.7337	3,1811215E+002	2,5517583E-001
26/08/2025 20:44:01.7337	3,1822031E+002	2,6668602E-001
26/08/2025 20:44:04.7337	3,1817581E+002	2,7818203E-001
26/08/2025 20:44:07.7337	3,1819489E+002	2,8975046E-001
26/08/2025 20:44:10.7337	3,1819489E+002	3,0007896E-001
26/08/2025 20:44:13.7337	3,1812488E+002	3,0999905E-001
26/08/2025 20:44:16.7337	3,1815033E+002	3,1964123E-001
26/08/2025 20:44:19.7337	3,1816302E+002	3,2978186E-001
26/08/2025 20:44:22.7337	3,1824579E+002	3,3970818E-001
26/08/2025 20:44:25.7337	3,1814395E+002	3,4898216E-001
26/08/2025 20:44:28.7337	3,1820761E+002	3,5830569E-001
26/08/2025 20:44:31.7337	3,1816302E+002	3,6897421E-001
26/08/2025 20:44:34.7337	3,1818216E+002	3,8179246E-001
26/08/2025 20:44:37.7337	3,1818851E+002	3,9385793E-001
26/08/2025 20:44:40.7337	3,1821399E+002	4,0622398E-001
26/08/2025 20:44:43.7337	3,1816302E+002	4,1994855E-001
26/08/2025 20:44:46.7337	3,1814395E+002	4,3934956E-001
26/08/2025 20:44:49.7337	3,1813126E+002	4,7283554E-001
26/08/2025 20:44:52.7337	3,1822031E+002	5,2528238E-001
26/08/2025 20:44:55.7337	3,1813126E+002	6,0374802E-001
26/08/2025 20:44:58.7337	3,1818216E+002	7,4512535E-001
26/08/2025 20:45:01.5523	-3,1781256E+002	-5,0451723E-003
26/08/2025 20:45:04.5523	-3,1779346E+002	-5,3793184E-002
26/08/2025 20:45:07.5523	-3,1785712E+002	-8,2813144E-002
26/08/2025 20:45:10.5523	-3,1786984E+002	-1,0521444E-001
26/08/2025 20:45:13.5523	-3,1775528E+002	-1,2437691E-001
26/08/2025 20:45:16.5523	-3,1786984E+002	-1,4170617E-001
26/08/2025 20:45:19.5523	-3,1783163E+002	-1,5714058E-001
26/08/2025 20:45:22.5523	-3,1785712E+002	-1,7165737E-001
26/08/2025 20:45:25.5523	-3,1779984E+002	-1,8559262E-001
26/08/2025 20:45:28.5523	-3,1784433E+002	-1,9943084E-001
26/08/2025 20:45:31.5523	-3,1782526E+002	-2,1246791E-001
26/08/2025 20:45:34.5523	-3,1786984E+002	-2,2472128E-001
26/08/2025 20:45:37.5523	-3,1778708E+002	-2,3672551E-001
26/08/2025 20:45:40.5523	-3,1780618E+002	-2,4848352E-001
26/08/2025 20:45:43.5523	-3,1782526E+002	-2,6046404E-001
26/08/2025 20:45:46.5523	-3,1783163E+002	-2,7127483E-001
26/08/2025 20:45:49.5523	-3,1783801E+002	-2,8156283E-001
26/08/2025 20:45:52.5523	-3,1782526E+002	-2,9153100E-001
26/08/2025 20:45:55.5523	-3,1784433E+002	-3,0180347E-001
26/08/2025 20:45:58.5523	-3,1787619E+002	-3,1164750E-001
26/08/2025 20:46:01.5523	-3,1787619E+002	-3,2042885E-001
26/08/2025 20:46:04.5523	-3,1791440E+002	-3,2911387E-001
26/08/2025 20:46:07.5523	-3,1789529E+002	-3,3777031E-001
26/08/2025 20:46:10.5523	-3,1788254E+002	-3,4766594E-001
26/08/2025 20:46:13.5523	-3,1787619E+002	-3,5672364E-001
26/08/2025 20:46:16.5523	-3,1784433E+002	-3,6582851E-001
26/08/2025 20:46:19.5523	-3,1786346E+002	-3,7552354E-001
26/08/2025 20:46:22.5523	-3,1782526E+002	-3,8685015E-001
26/08/2025 20:46:25.5523	-3,1779984E+002	-3,9910614E-001
26/08/2025 20:46:28.5523	-3,1783163E+002	-4,1105020E-001
26/08/2025 20:46:31.5523	-3,1789529E+002	-4,2661703E-001
26/08/2025 20:46:34.5523	-3,1787619E+002	-4,5414174E-001
26/08/2025 20:46:37.5523	-3,1785712E+002	-5,0765276E-001
26/08/2025 20:46:40.5523	-3,1785712E+002	-5,9243977E-001
26/08/2025 20:46:43.5523	-3,1785074E+002	-7,3016644E-001
26/08/2025 20:46:44.2877	-7,2953433E-002	-6,4697635E-001