File: data/phase_2a/Sergey/3/8.3/02 polarisation/C7D1_hr 0,1MFeCN6_in_1M_KCl_3306mL_symmetric_balanced_4_point_PEIS_04_CA_C16.txt
time/s	<I>/mA	Ewe/V
03/09/2025 15:04:01.9511	1,375001378184190E+002	-2,0918909E-003
03/09/2025 15:04:06.9511	2,038065091896055E+001	-2,2255897E-003
03/09/2025 15:04:11.9511	4,937607599735259E+000	-2,1491903E-003
03/09/2025 15:04:16.9511	4,373298729228971E+000	-2,0536913E-003
03/09/2025 15:04:21.9511	5,115013312244400E+000	-2,1873901E-003
03/09/2025 15:04:26.9511	5,584190527629843E+000	-2,1300905E-003
03/09/2025 15:04:31.9511	5,750489118957518E+000	-2,0345915E-003
03/09/2025 15:04:36.9511	5,729266509819027E+000	-2,1491903E-003
03/09/2025 15:04:41.9511	5,698030806159963E+000	-2,0918909E-003
03/09/2025 15:04:46.9511	5,658370994091033E+000	-2,1300905E-003
03/09/2025 15:04:51.9511	5,629167839241020E+000	-2,0918909E-003
03/09/2025 15:04:56.9511	5,616106616973873E+000	-2,1682901E-003
03/09/2025 15:05:01.9511	5,592716255950926E+000	-2,1300905E-003
03/09/2025 15:05:06.9511	5,579493552684781E+000	-2,0727911E-003
03/09/2025 15:05:11.9511	5,558319616985319E+000	-2,1682901E-003
03/09/2025 15:05:16.9511	5,531974778079986E+000	-2,1109907E-003
03/09/2025 15:05:21.9511	5,515154696369166E+000	-2,0536913E-003
03/09/2025 15:05:26.9511	5,497671793174732E+000	-2,0345915E-003
03/09/2025 15:05:31.9511	5,481404495239246E+000	-2,0918909E-003
03/09/2025 15:05:36.9511	5,459072722911827E+000	-2,0345915E-003
03/09/2025 15:05:41.9511	5,439510169696803E+000	-2,0918909E-003
03/09/2025 15:05:46.9511	5,421550879669184E+000	-2,0727911E-003
03/09/2025 15:05:51.9511	5,406892269897460E+000	-2,1300905E-003
03/09/2025 15:05:56.9511	5,390103819370269E+000	-2,1682901E-003
03/09/2025 15:06:01.9511	5,364077474975588E+000	-2,1682901E-003
03/09/2025 15:06:06.9511	5,345567312812797E+000	-2,0918909E-003
03/09/2025 15:06:11.9511	5,322567839336394E+000	-2,1109907E-003
03/09/2025 15:06:16.9511	5,309718659782405E+000	-2,0727911E-003
03/09/2025 15:06:21.9511	5,297707223320003E+000	-2,1109907E-003
03/09/2025 15:06:26.9511	5,270675191116332E+000	-2,0345915E-003
03/09/2025 15:06:31.9511	5,246158943462362E+000	-2,1491903E-003
03/09/2025 15:06:36.9511	5,239734773731215E+000	-2,1491903E-003
03/09/2025 15:06:41.9511	5,220791454601283E+000	-2,0727911E-003
03/09/2025 15:06:46.9511	5,204340160942067E+000	-2,1491903E-003
03/09/2025 15:06:51.9511	5,179019467926024E+000	-2,1682901E-003
03/09/2025 15:06:56.9511	5,166973217487332E+000	-2,1491903E-003
03/09/2025 15:07:01.9511	5,156597713565823E+000	-2,0154917E-003
03/09/2025 15:07:06.9511	5,140049263763430E+000	-2,1873901E-003
03/09/2025 15:07:11.9511	5,123571825981138E+000	-2,0727911E-003
03/09/2025 15:07:16.9511	5,090210064220422E+000	-2,1491903E-003
03/09/2025 15:07:21.9511	5,085658425617211E+000	-2,0918909E-003
03/09/2025 15:07:26.9511	5,062112998008715E+000	-2,1300905E-003
03/09/2025 15:07:31.9511	5,039847666358952E+000	-2,0536913E-003
03/09/2025 15:07:36.9511	5,032686571216573E+000	-2,1873901E-003
03/09/2025 15:07:41.9511	5,013596990585327E+000	-2,0536913E-003
03/09/2025 15:07:46.9511	4,984990695667264E+000	-2,1682901E-003
03/09/2025 15:07:51.9511	4,974783353805542E+000	-2,1873901E-003
03/09/2025 15:07:56.9511	4,956604807376863E+000	-2,1682901E-003
03/09/2025 15:08:01.9511	4,938110366630553E+000	-2,0918909E-003
03/09/2025 15:08:06.9511	4,919967675971984E+000	-2,1109907E-003
03/09/2025 15:08:11.9511	4,899952861499786E+000	-2,0154917E-003
03/09/2025 15:08:16.9511	4,878975538063045E+000	-2,1109907E-003
03/09/2025 15:08:21.9511	4,860328715801238E+000	-2,1491903E-003
03/09/2025 15:08:26.9511	4,839230155944819E+000	-2,1873901E-003
03/09/2025 15:08:31.9511	4,832615250492097E+000	-2,0727911E-003
03/09/2025 15:08:36.9511	4,822140647888183E+000	-2,2064899E-003
03/09/2025 15:08:41.9511	4,804669474411007E+000	-2,1300905E-003
03/09/2025 15:08:46.9511	4,779133130645747E+000	-2,1300905E-003
03/09/2025 15:08:51.9511	4,765534869670867E+000	-2,2446895E-003
03/09/2025 15:08:56.9511	4,755637139129638E+000	-2,1300905E-003
03/09/2025 15:09:01.9511	4,737849265384671E+000	-2,0154917E-003
03/09/2025 15:09:06.9511	4,718432323646546E+000	-2,2446895E-003
03/09/2025 15:09:11.9511	4,704056237316131E+000	-2,0918909E-003
03/09/2025 15:09:16.9511	4,686582903575896E+000	-2,1300905E-003
03/09/2025 15:09:21.9511	4,678072503185270E+000	-2,1491903E-003
03/09/2025 15:09:26.9511	4,655032517051694E+000	-2,1682901E-003
03/09/2025 15:09:31.9511	4,651203443336485E+000	-2,1873901E-003
03/09/2025 15:09:36.9511	4,626796646118166E+000	-2,0918909E-003
03/09/2025 15:09:41.9511	4,611361494922638E+000	-2,0727911E-003
03/09/2025 15:09:46.9511	4,595052416324606E+000	-2,2828891E-003
03/09/2025 15:09:51.9511	4,581820453453062E+000	-2,1491903E-003
03/09/2025 15:09:56.9511	4,570664478778831E+000	-2,0154917E-003
03/09/2025 15:10:01.9511	4,545158682060233E+000	-2,1873901E-003
03/09/2025 15:10:06.9511	4,543775452518460E+000	-2,0536913E-003
03/09/2025 15:10:11.9511	4,530156235313406E+000	-2,1682901E-003
03/09/2025 15:10:16.9511	4,520031632518752E+000	-2,0536913E-003
03/09/2025 15:10:21.9511	4,494981634902956E+000	-2,2446895E-003
03/09/2025 15:10:26.9511	4,472482690143584E+000	-2,2255897E-003
03/09/2025 15:10:31.9511	4,464307690334316E+000	-2,1682901E-003
03/09/2025 15:10:36.9511	4,444390805530546E+000	-2,1491903E-003
03/09/2025 15:10:41.9511	4,430659246349332E+000	-2,0536913E-003
03/09/2025 15:10:46.9511	4,421826355648040E+000	-2,1300905E-003
03/09/2025 15:10:51.9511	4,398223004150388E+000	-2,0154917E-003
03/09/2025 15:10:56.9511	4,393556529808045E+000	-2,1491903E-003
03/09/2025 15:11:01.9511	4,375573145008087E+000	-2,1873901E-003
03/09/2025 15:11:06.9511	4,365043172168731E+000	-2,2637893E-003
03/09/2025 15:11:11.9511	4,352293435001371E+000	-2,0536913E-003
03/09/2025 15:11:16.9511	4,341613233947754E+000	-2,1873901E-003
03/09/2025 15:11:21.9511	4,322268405056001E+000	-2,0918909E-003
03/09/2025 15:11:26.9511	4,324854428100583E+000	-2,0345915E-003
03/09/2025 15:11:31.9511	4,301799792098997E+000	-2,0918909E-003
03/09/2025 15:11:36.9511	4,284046662807464E+000	-2,0918909E-003
03/09/2025 15:11:41.9511	4,265048386669157E+000	-2,1873901E-003
03/09/2025 15:11:46.9511	4,254659007453910E+000	-2,0918909E-003
03/09/2025 15:11:51.9511	4,233954740619652E+000	-2,1682901E-003
03/09/2025 15:11:56.9511	4,218436425209035E+000	-2,0727911E-003
03/09/2025 15:12:01.9511	4,208766460227967E+000	-2,1873901E-003
03/09/2025 15:12:06.9511	4,196668557262420E+000	-2,1682901E-003
03/09/2025 15:12:11.9511	4,182764046287536E+000	-2,0536913E-003
03/09/2025 15:12:16.9511	4,170136752605430E+000	-2,1300905E-003
03/09/2025 15:12:21.9511	4,153785591316222E+000	-2,1109907E-003
03/09/2025 15:12:26.9511	4,137636964416501E+000	-2,1682901E-003
03/09/2025 15:12:31.9511	4,135995758628845E+000	-2,0918909E-003
03/09/2025 15:12:36.9511	4,117481195449827E+000	-2,1300905E-003
03/09/2025 15:12:41.9511	4,109454540348054E+000	-2,1682901E-003
03/09/2025 15:12:46.9511	4,103917221069331E+000	-2,0918909E-003
03/09/2025 15:12:51.9511	4,089214377307890E+000	-2,0536913E-003
03/09/2025 15:12:56.9511	4,076821893787375E+000	-2,1300905E-003
03/09/2025 15:13:01.9511	4,062288589096070E+000	-2,2064899E-003
03/09/2025 15:13:06.9511	4,047676593208312E+000	-2,1491903E-003
03/09/2025 15:13:11.9511	4,035385585212707E+000	-2,0727911E-003
03/09/2025 15:13:16.9511	4,025914831686009E+000	-2,2064899E-003
03/09/2025 15:13:21.9511	4,010596614837638E+000	-2,1491903E-003
03/09/2025 15:13:26.9511	4,003098910427092E+000	-2,0727911E-003
03/09/2025 15:13:31.9511	3,985910810947402E+000	-2,1491903E-003
03/09/2025 15:13:36.9511	3,978912687540046E+000	-2,0918909E-003
03/09/2025 15:13:41.9511	3,962828965663903E+000	-2,1491903E-003
03/09/2025 15:13:46.9511	3,950745236539831E+000	-2,0536913E-003
03/09/2025 15:13:51.9511	3,928057980775826E+000	-2,0536913E-003
03/09/2025 15:13:56.9511	3,915848951005936E+000	-2,1109907E-003
03/09/2025 15:14:01.9511	3,894871225070953E+000	-2,0918909E-003
03/09/2025 15:14:06.9511	3,880777221631995E+000	-2,1300905E-003
03/09/2025 15:14:11.9511	3,867187905788413E+000	-2,0154917E-003
03/09/2025 15:14:16.9511	3,860773381996154E+000	-2,2446895E-003
03/09/2025 15:14:21.9511	3,858851582384105E+000	-2,1109907E-003
03/09/2025 15:14:26.9511	3,838662906217579E+000	-2,1682901E-003
03/09/2025 15:14:31.9511	3,824597177886961E+000	-2,0536913E-003
03/09/2025 15:14:36.9511	3,813426602077485E+000	-2,0727911E-003
03/09/2025 15:14:41.9511	3,814344479942314E+000	-2,1300905E-003
03/09/2025 15:14:46.9511	3,794827042913440E+000	-2,1491903E-003
03/09/2025 15:14:51.9511	3,770277909612652E+000	-2,1491903E-003
03/09/2025 15:14:56.9511	3,761058254814145E+000	-2,1109907E-003
03/09/2025 15:15:01.9511	3,753963132286060E+000	-1,9390924E-003
03/09/2025 15:15:06.9511	3,728361710691445E+000	-2,0727911E-003
03/09/2025 15:15:11.9511	3,729190166378018E+000	-2,1300905E-003
03/09/2025 15:15:16.9511	3,715580841922758E+000	-2,1491903E-003
03/09/2025 15:15:21.9511	3,712650202226627E+000	-2,1109907E-003
03/09/2025 15:15:26.9511	3,697029016876222E+000	-2,0345915E-003
03/09/2025 15:15:31.9511	3,689734379434583E+000	-2,1873901E-003
03/09/2025 15:15:36.9511	3,679852522087096E+000	-2,1682901E-003
03/09/2025 15:15:41.9511	3,667466895675657E+000	-2,2064899E-003
03/09/2025 15:15:46.9511	3,656938692998885E+000	-2,0536913E-003
03/09/2025 15:15:51.9511	3,643240333080293E+000	-1,9963919E-003
03/09/2025 15:15:56.9511	3,630660293340683E+000	-2,0918909E-003
03/09/2025 15:16:01.9511	3,622693070268630E+000	-2,1300905E-003
03/09/2025 15:16:06.9511	3,603381731605523E+000	-2,1873901E-003
03/09/2025 15:16:11.9511	3,597159720754618E+000	-2,0345915E-003
03/09/2025 15:16:16.9511	3,581846681976316E+000	-2,1109907E-003
03/09/2025 15:16:21.9511	3,565723088407509E+000	-2,1682901E-003
03/09/2025 15:16:26.9511	3,559547936725615E+000	-2,0536913E-003
03/09/2025 15:16:31.9511	3,543764667367931E+000	-2,1682901E-003
03/09/2025 15:16:36.9511	3,525981237173085E+000	-2,0918909E-003
03/09/2025 15:16:41.9511	3,515056316900242E+000	-2,1300905E-003
03/09/2025 15:16:46.9511	3,516277103376387E+000	-2,2064899E-003
03/09/2025 15:16:51.9511	3,493225187826148E+000	-2,1491903E-003
03/09/2025 15:16:56.9511	3,480829427719115E+000	-2,1300905E-003
03/09/2025 15:17:01.9511	3,477480297946926E+000	-2,1109907E-003
03/09/2025 15:17:06.9511	3,472468860960007E+000	-2,1300905E-003
03/09/2025 15:17:11.9511	3,452876739931106E+000	-2,1873901E-003
03/09/2025 15:17:16.9511	3,444613078927986E+000	-2,1109907E-003
03/09/2025 15:17:21.9511	3,439649453783026E+000	-2,1300905E-003
03/09/2025 15:17:26.9511	3,424951298713683E+000	-1,9963919E-003
03/09/2025 15:17:31.9511	3,419121149969101E+000	-2,0345915E-003
03/09/2025 15:17:36.9511	3,406066341543180E+000	-2,1300905E-003
03/09/2025 15:17:41.9511	3,396767281436922E+000	-2,1682901E-003
03/09/2025 15:17:46.9511	3,392322826337811E+000	-2,1109907E-003
03/09/2025 15:17:51.9511	3,373473229885093E+000	-2,1300905E-003
03/09/2025 15:17:56.9511	3,362766269683838E+000	-2,0918909E-003
03/09/2025 15:18:01.9511	3,350618433141705E+000	-2,0536913E-003
03/09/2025 15:18:06.9511	3,344970649003969E+000	-2,1873901E-003
03/09/2025 15:18:11.9511	3,325693129110336E+000	-2,1682901E-003
03/09/2025 15:18:16.9511	3,316047878789902E+000	-2,1300905E-003
03/09/2025 15:18:21.9511	3,313774933767313E+000	-2,2446895E-003
03/09/2025 15:18:26.9511	3,293452972555160E+000	-2,1873901E-003
03/09/2025 15:18:31.9511	3,290871408081053E+000	-2,0345915E-003
03/09/2025 15:18:36.9511	3,279432991552353E+000	-1,9963919E-003
03/09/2025 15:18:41.9511	3,268535801744459E+000	-2,1300905E-003
03/09/2025 15:18:46.9511	3,258047864866253E+000	-2,1109907E-003
03/09/2025 15:18:51.9511	3,245643316745756E+000	-2,1300905E-003
03/09/2025 15:18:56.9511	3,245041052150725E+000	-2,0536913E-003
03/09/2025 15:19:01.9511	3,229611475753778E+000	-2,2064899E-003
03/09/2025 15:19:06.9511	3,204256287574768E+000	-2,1682901E-003
03/09/2025 15:19:11.9511	3,203731514644623E+000	-2,1109907E-003
03/09/2025 15:19:16.9511	3,194439568471907E+000	-2,1873901E-003
03/09/2025 15:19:21.9511	3,176816466712951E+000	-1,9772921E-003
03/09/2025 15:19:26.9511	3,174682214212410E+000	-2,1300905E-003
03/09/2025 15:19:31.9511	3,168597650194169E+000	-2,0918909E-003
03/09/2025 15:19:36.9511	3,160478592538833E+000	-2,1300905E-003
03/09/2025 15:19:41.9511	3,142095659112925E+000	-2,1109907E-003
03/09/2025 15:19:46.9511	3,136682093191141E+000	-2,1682901E-003
03/09/2025 15:19:51.9511	3,126468756008144E+000	-2,0536913E-003
03/09/2025 15:19:56.9511	3,115450337505340E+000	-2,1682901E-003
03/09/2025 15:20:01.9511	3,104710590553283E+000	-2,1300905E-003
03/09/2025 15:20:06.9511	3,088692224264143E+000	-2,0918909E-003
03/09/2025 15:20:11.9511	3,078440873003004E+000	-2,2255897E-003
03/09/2025 15:20:16.9511	3,073583903884881E+000	-2,1873901E-003
03/09/2025 15:20:21.9511	3,067025098943709E+000	-2,1682901E-003
03/09/2025 15:20:26.9511	3,049745480108257E+000	-2,2255897E-003
03/09/2025 15:20:31.9511	3,045023591804501E+000	-2,0345915E-003
03/09/2025 15:20:36.9511	3,026438158655168E+000	-2,1682901E-003
03/09/2025 15:20:41.9511	3,021440464448929E+000	-2,0727911E-003
03/09/2025 15:20:46.9511	3,020672322368622E+000	-2,1109907E-003
03/09/2025 15:20:51.9511	2,998327448749542E+000	-2,1300905E-003
03/09/2025 15:20:56.9511	2,990878017187114E+000	-2,0918909E-003
03/09/2025 15:21:01.9511	2,997937105321881E+000	-2,2064899E-003
03/09/2025 15:21:06.9511	2,984201028585431E+000	-2,0536913E-003
03/09/2025 15:21:11.9511	2,971135810422897E+000	-2,0536913E-003
03/09/2025 15:21:16.9511	2,953457563781736E+000	-2,0536913E-003
03/09/2025 15:21:21.9511	2,947632932233809E+000	-2,0918909E-003
03/09/2025 15:21:26.9511	2,943613099622723E+000	-2,0727911E-003
03/09/2025 15:21:31.9511	2,932106558895107E+000	-2,1682901E-003
03/09/2025 15:21:36.9511	2,925636471223832E+000	-2,1109907E-003
03/09/2025 15:21:41.9511	2,918794591569899E+000	-2,1109907E-003
03/09/2025 15:21:46.9511	2,912369395351412E+000	-2,1873901E-003
03/09/2025 15:21:51.9511	2,895913663721082E+000	-2,0727911E-003
03/09/2025 15:21:56.9511	2,890277150678634E+000	-2,1300905E-003
03/09/2025 15:22:01.9511	2,877799306058883E+000	-2,1491903E-003
03/09/2025 15:22:06.9511	2,874493598794937E+000	-2,1491903E-003
03/09/2025 15:22:11.9511	2,862716673421860E+000	-2,0536913E-003
03/09/2025 15:22:16.9511	2,851128521490097E+000	-2,0536913E-003
03/09/2025 15:22:21.9511	2,844918023777008E+000	-2,0727911E-003
03/09/2025 15:22:26.9511	2,840021444559092E+000	-2,2446895E-003
03/09/2025 15:22:31.9511	2,819936034393311E+000	-2,1109907E-003
03/09/2025 15:22:36.9511	2,808813565063477E+000	-2,0918909E-003
03/09/2025 15:22:41.9511	2,802257288932800E+000	-2,1300905E-003
03/09/2025 15:22:46.9511	2,793257807254783E+000	-2,1109907E-003
03/09/2025 15:22:51.9511	2,785708126115800E+000	-2,1682901E-003
03/09/2025 15:22:56.9511	2,772106394624710E+000	-2,1109907E-003
03/09/2025 15:23:01.9511	2,765687485933302E+000	-2,1491903E-003
03/09/2025 15:23:06.9511	2,755831941413879E+000	-2,0918909E-003
03/09/2025 15:23:11.9511	2,752296951770781E+000	-2,1109907E-003
03/09/2025 15:23:16.9511	2,742642329311366E+000	-2,1873901E-003
03/09/2025 15:23:21.9511	2,736646125078202E+000	-2,0536913E-003
03/09/2025 15:23:26.9511	2,730841089105603E+000	-2,2828891E-003
03/09/2025 15:23:31.9511	2,727877866506576E+000	-2,1873901E-003
03/09/2025 15:23:36.9511	2,711763694047924E+000	-2,1109907E-003
03/09/2025 15:23:41.9511	2,705626559162134E+000	-2,0536913E-003
03/09/2025 15:23:46.9511	2,691715077877042E+000	-2,2446895E-003
03/09/2025 15:23:51.9511	2,678668689584732E+000	-2,0345915E-003
03/09/2025 15:23:56.9511	2,674494529914854E+000	-1,9772921E-003
03/09/2025 15:24:01.9511	2,677099628067012E+000	-2,1300905E-003
03/09/2025 15:24:06.9511	2,662194572496411E+000	-2,0536913E-003
03/09/2025 15:24:11.9511	2,670690505123137E+000	-2,0727911E-003
03/09/2025 15:24:16.9511	2,640862128973005E+000	-2,0536913E-003
03/09/2025 15:24:21.9511	2,636949158430092E+000	-2,1491903E-003
03/09/2025 15:24:26.9511	2,626004631233215E+000	-2,1682901E-003
03/09/2025 15:24:31.9511	2,616636319780348E+000	-2,1873901E-003
03/09/2025 15:24:36.9511	2,600293218040463E+000	-2,1491903E-003
03/09/2025 15:24:41.9511	2,594426463842389E+000	-2,0918909E-003
03/09/2025 15:24:46.9511	2,576416208791731E+000	-2,1491903E-003
03/09/2025 15:24:51.9511	2,566166002464286E+000	-2,1682901E-003
03/09/2025 15:24:56.9511	2,562850865697861E+000	-2,3210887E-003
03/09/2025 15:25:01.9511	2,557395276117322E+000	-2,1682901E-003
03/09/2025 15:25:06.9511	2,555396524000166E+000	-2,1491903E-003
03/09/2025 15:25:11.9511	2,550750092458721E+000	-2,1873901E-003
03/09/2025 15:25:16.9511	2,534180738401410E+000	-2,1300905E-003
03/09/2025 15:25:21.9511	2,528046937990183E+000	-2,1300905E-003
03/09/2025 15:25:26.9511	2,519790962219233E+000	-2,1682901E-003
03/09/2025 15:25:31.9511	2,511596868848802E+000	-2,1682901E-003
03/09/2025 15:25:36.9511	2,508825112819668E+000	-2,1491903E-003
03/09/2025 15:25:41.9511	2,503739300870894E+000	-2,1300905E-003
03/09/2025 15:25:46.9511	2,493025021457672E+000	-2,1109907E-003
03/09/2025 15:25:51.9511	2,491048308324814E+000	-2,1109907E-003
03/09/2025 15:25:56.9511	2,481470869064328E+000	-2,0727911E-003
03/09/2025 15:26:01.9511	2,468200608253476E+000	-2,1491903E-003
03/09/2025 15:26:06.9511	2,460822503280639E+000	-2,0345915E-003
03/09/2025 15:26:11.9511	2,444878970670700E+000	-2,1873901E-003
03/09/2025 15:26:16.9511	2,438438208007810E+000	-2,1300905E-003
03/09/2025 15:26:21.9511	2,435578789710998E+000	-2,1109907E-003
03/09/2025 15:26:26.9511	2,432138948774336E+000	-2,1682901E-003
03/09/2025 15:26:31.9511	2,420804066324230E+000	-2,1682901E-003
03/09/2025 15:26:36.9511	2,413513966035836E+000	-2,1109907E-003
03/09/2025 15:26:41.9511	2,401492213058468E+000	-2,0918909E-003
03/09/2025 15:26:46.9511	2,399557279443741E+000	-2,2446895E-003
03/09/2025 15:26:51.9511	2,395113157510757E+000	-2,1682901E-003
03/09/2025 15:26:56.9511	2,389297935676575E+000	-2,0918909E-003
03/09/2025 15:27:01.9511	2,382616468095780E+000	-2,1873901E-003
03/09/2025 15:27:06.9511	2,377019408130645E+000	-2,0918909E-003
03/09/2025 15:27:11.9511	2,369548829936978E+000	-2,1109907E-003
03/09/2025 15:27:16.9511	2,354057057332993E+000	-2,1873901E-003
03/09/2025 15:27:21.9511	2,349382588577271E+000	-2,1109907E-003
03/09/2025 15:27:26.9511	2,352403581047056E+000	-2,0918909E-003
03/09/2025 15:27:31.9511	2,352024137067790E+000	-2,1300905E-003
03/09/2025 15:27:36.9511	2,341064022397990E+000	-2,1109907E-003
03/09/2025 15:27:41.9511	2,331491174602508E+000	-2,0727911E-003
03/09/2025 15:27:46.9511	2,315595877218246E+000	-2,1873901E-003
03/09/2025 15:27:51.9511	2,302863778781891E+000	-2,1109907E-003
03/09/2025 15:27:56.9511	2,299051755332947E+000	-2,1873901E-003
03/09/2025 15:28:01.9511	2,299224877977370E+000	-2,1109907E-003
03/09/2025 15:28:06.9511	2,287995793914794E+000	-2,1491903E-003
03/09/2025 15:28:11.9511	2,277488030099867E+000	-2,1873901E-003
03/09/2025 15:28:16.9511	2,274987010812758E+000	-2,2828891E-003
03/09/2025 15:28:21.9511	2,267067696905135E+000	-2,0727911E-003
03/09/2025 15:28:26.9511	2,254836557197571E+000	-2,1300905E-003
03/09/2025 15:28:31.9511	2,252446386098862E+000	-2,2064899E-003
03/09/2025 15:28:36.9511	2,242778306770324E+000	-2,1491903E-003
03/09/2025 15:28:41.9511	2,244160406684875E+000	-2,1300905E-003
03/09/2025 15:28:46.9511	2,226975156736373E+000	-2,1300905E-003
03/09/2025 15:28:51.9511	2,230389212942114E+000	-1,9008928E-003
03/09/2025 15:28:56.9511	2,222729421806335E+000	-2,1300905E-003
03/09/2025 15:29:01.9511	2,208157513523101E+000	-2,1491903E-003
03/09/2025 15:29:06.9511	2,196946542882920E+000	-2,0918909E-003
03/09/2025 15:29:11.9511	2,191171117973326E+000	-2,1491903E-003
03/09/2025 15:29:16.9511	2,194992058229446E+000	-2,1682901E-003
03/09/2025 15:29:21.9511	2,186311217403413E+000	-2,1300905E-003
03/09/2025 15:29:26.9511	2,180987390756606E+000	-2,1109907E-003
03/09/2025 15:29:31.9511	2,174097064590454E+000	-2,0918909E-003
03/09/2025 15:29:36.9511	2,165898087835312E+000	-2,0727911E-003
03/09/2025 15:29:41.9511	2,159352132749554E+000	-2,1682901E-003
03/09/2025 15:29:46.9511	2,160199555826189E+000	-2,2064899E-003
03/09/2025 15:29:51.9511	2,143791753578178E+000	-2,2064899E-003
03/09/2025 15:29:56.9511	2,147664140319819E+000	-2,2064899E-003
03/09/2025 15:30:01.9511	2,140083106470104E+000	-2,2064899E-003
03/09/2025 15:30:06.9511	2,123524628210067E+000	-2,1109907E-003
03/09/2025 15:30:11.9511	2,133056489467613E+000	-2,1873901E-003
03/09/2025 15:30:16.9511	2,117328358459471E+000	-2,1491903E-003
03/09/2025 15:30:21.9511	2,115181677341461E+000	-2,0345915E-003
03/09/2025 15:30:26.9511	2,100742014694212E+000	-2,1491903E-003
03/09/2025 15:30:31.9511	2,089843736648559E+000	-2,0727911E-003
03/09/2025 15:30:36.9511	2,093749270009995E+000	-2,1491903E-003
03/09/2025 15:30:41.9511	2,075663773012160E+000	-2,1300905E-003
03/09/2025 15:30:46.9511	2,072750280141829E+000	-2,1491903E-003
03/09/2025 15:30:51.9511	2,062594631290436E+000	-2,1109907E-003
03/09/2025 15:30:56.9511	2,057846837663647E+000	-2,1682901E-003
03/09/2025 15:31:01.9511	2,046002868032455E+000	-2,1109907E-003
03/09/2025 15:31:06.9511	2,046628299951550E+000	-2,0727911E-003
03/09/2025 15:31:11.9511	2,029228061914438E+000	-2,0918909E-003
03/09/2025 15:31:16.9511	2,023646320223808E+000	-2,2446895E-003
03/09/2025 15:31:21.9511	2,017352551102636E+000	-2,0918909E-003
03/09/2025 15:31:26.9511	2,013177901697155E+000	-2,1109907E-003
03/09/2025 15:31:31.9511	2,004497860670085E+000	-2,1491903E-003
03/09/2025 15:31:36.9511	2,000453408265109E+000	-2,1491903E-003
03/09/2025 15:31:41.9511	1,996140395355226E+000	-2,0918909E-003
03/09/2025 15:31:46.9511	1,998013659882542E+000	-2,1300905E-003
03/09/2025 15:31:51.9511	1,979099427151681E+000	-2,0918909E-003
03/09/2025 15:31:56.9511	1,970509567666049E+000	-2,1682901E-003
03/09/2025 15:32:01.9511	1,973265226888657E+000	-2,1491903E-003
03/09/2025 15:32:06.9511	1,973767570567126E+000	-2,1491903E-003
03/09/2025 15:32:11.9511	1,956328429913519E+000	-2,0345915E-003
03/09/2025 15:32:16.9511	1,964321439242354E+000	-2,0536913E-003
03/09/2025 15:32:21.9511	1,945753395938873E+000	-2,0918909E-003
03/09/2025 15:32:26.9511	1,945579723286627E+000	-2,0727911E-003
03/09/2025 15:32:31.9511	1,938838691067696E+000	-2,1682901E-003
03/09/2025 15:32:36.9511	1,930903870415683E+000	-2,1300905E-003
03/09/2025 15:32:41.9511	1,929193569254874E+000	-2,1300905E-003
03/09/2025 15:32:46.9511	1,917440885043144E+000	-2,1300905E-003
03/09/2025 15:32:51.9511	1,906775127434730E+000	-2,1873901E-003
03/09/2025 15:32:56.9511	1,913206709408759E+000	-2,2064899E-003
03/09/2025 15:33:01.9511	1,896082186198235E+000	-2,1682901E-003
03/09/2025 15:33:06.9511	1,889940301179884E+000	-2,0727911E-003
03/09/2025 15:33:11.9511	1,887279729795456E+000	-2,1873901E-003
03/09/2025 15:33:16.9511	1,886505786323539E+000	-1,9963919E-003
03/09/2025 15:33:21.9511	1,873931976580614E+000	-2,1491903E-003
03/09/2025 15:33:26.9511	1,870184329938887E+000	-2,0727911E-003
03/09/2025 15:33:31.9511	1,866309226083754E+000	-2,1109907E-003
03/09/2025 15:33:36.9511	1,861573715806006E+000	-2,1109907E-003
03/09/2025 15:33:41.9511	1,848180480766288E+000	-2,1109907E-003
03/09/2025 15:33:46.9511	1,846632276678086E+000	-2,1682901E-003
03/09/2025 15:33:51.9511	1,835754775238035E+000	-2,0536913E-003
03/09/2025 15:33:56.9511	1,833898309874535E+000	-2,0345915E-003
03/09/2025 15:34:01.9511	1,825666533398628E+000	-2,1300905E-003
03/09/2025 15:34:06.9511	1,827615412783619E+000	-2,2255897E-003
03/09/2025 15:34:11.9511	1,827106401300426E+000	-2,1682901E-003
03/09/2025 15:34:16.9511	1,822338235378265E+000	-2,1300905E-003
03/09/2025 15:34:21.9511	1,817591999602314E+000	-2,1682901E-003
03/09/2025 15:34:26.9511	1,816313435769079E+000	-2,0727911E-003
03/09/2025 15:34:31.9511	1,796213673019409E+000	-2,0345915E-003
03/09/2025 15:34:36.9511	1,794895149207107E+000	-2,1300905E-003
03/09/2025 15:34:41.9511	1,791292732977865E+000	-2,1491903E-003
03/09/2025 15:34:46.9511	1,781967622637747E+000	-1,9963919E-003
03/09/2025 15:34:51.9511	1,786287387490272E+000	-2,0727911E-003
03/09/2025 15:34:56.9511	1,774267312908173E+000	-2,1109907E-003
03/09/2025 15:35:01.9511	1,766166071891785E+000	-2,2255897E-003
03/09/2025 15:35:06.9511	1,770069412326812E+000	-2,1491903E-003
03/09/2025 15:35:11.9511	1,761718358469004E+000	-2,1491903E-003
03/09/2025 15:35:16.9511	1,752203034520146E+000	-2,1682901E-003
03/09/2025 15:35:21.9511	1,742900239777565E+000	-2,0918909E-003
03/09/2025 15:35:26.9511	1,751191813230506E+000	-2,0918909E-003
03/09/2025 15:35:31.9511	1,743499465394020E+000	-2,0536913E-003
03/09/2025 15:35:36.9511	1,727741876220701E+000	-2,1682901E-003
03/09/2025 15:35:41.9511	1,727157284450527E+000	-2,0727911E-003
03/09/2025 15:35:46.9511	1,717765883350371E+000	-2,1491903E-003
03/09/2025 15:35:51.9511	1,718695047140121E+000	-2,1300905E-003
03/09/2025 15:35:56.9511	1,702569318222992E+000	-2,1873901E-003
03/09/2025 15:36:01.9511	1,705783401727672E+000	-2,1682901E-003
03/09/2025 15:36:06.9511	1,703901147437087E+000	-2,1300905E-003
03/09/2025 15:36:11.9511	1,698896918678280E+000	-2,2446895E-003
03/09/2025 15:36:16.9511	1,697788620662685E+000	-2,0345915E-003
03/09/2025 15:36:21.9511	1,688166176533699E+000	-2,1109907E-003
03/09/2025 15:36:26.9511	1,686226993870733E+000	-2,1873901E-003
03/09/2025 15:36:31.9511	1,681160017538069E+000	-2,2446895E-003
03/09/2025 15:36:36.9511	1,681051056241987E+000	-2,2446895E-003
03/09/2025 15:36:41.9511	1,659674326133725E+000	-2,1300905E-003
03/09/2025 15:36:46.9511	1,661886793923378E+000	-2,0727911E-003
03/09/2025 15:36:51.9511	1,646943519663807E+000	-2,0918909E-003
03/09/2025 15:36:56.9511	1,655579995155328E+000	-2,1873901E-003
03/09/2025 15:37:01.9511	1,648411715269084E+000	-2,2064899E-003
03/09/2025 15:37:06.9511	1,640960690236092E+000	-2,1109907E-003
03/09/2025 15:37:11.9511	1,641782850646969E+000	-2,0536913E-003
03/09/2025 15:37:16.9511	1,624962545228005E+000	-2,0918909E-003
03/09/2025 15:37:21.9511	1,624374072432516E+000	-2,1300905E-003
03/09/2025 15:37:26.9511	1,615456781339645E+000	-2,1109907E-003
03/09/2025 15:37:31.9511	1,611985412001609E+000	-2,0918909E-003
03/09/2025 15:37:36.9511	1,608002894568443E+000	-2,2064899E-003
03/09/2025 15:37:41.9511	1,607841178560253E+000	-2,1491903E-003
03/09/2025 15:37:46.9511	1,604421944785118E+000	-2,0345915E-003
03/09/2025 15:37:51.9511	1,612169867372513E+000	-2,2064899E-003
03/09/2025 15:37:56.9511	1,605195173811912E+000	-2,1682901E-003
03/09/2025 15:38:01.9511	1,586006713080405E+000	-2,0727911E-003
03/09/2025 15:38:06.9511	1,581483265686034E+000	-2,1109907E-003
03/09/2025 15:38:11.9511	1,572670080113411E+000	-2,1873901E-003
03/09/2025 15:38:16.9511	1,569974702382083E+000	-2,2637893E-003
03/09/2025 15:38:21.9511	1,564852394461628E+000	-2,0727911E-003
03/09/2025 15:38:26.9511	1,544340342164038E+000	-2,0918909E-003
03/09/2025 15:38:31.9511	1,561008406782150E+000	-2,0727911E-003
03/09/2025 15:38:36.9511	1,537901027202606E+000	-1,9963919E-003
03/09/2025 15:38:41.9511	1,543018263506887E+000	-2,1873901E-003
03/09/2025 15:38:46.9511	1,531450991415977E+000	-2,2637893E-003
03/09/2025 15:38:51.9511	1,534166723632811E+000	-2,1873901E-003
03/09/2025 15:38:56.9511	1,535291431546211E+000	-2,1109907E-003
03/09/2025 15:39:01.9511	1,525993743109701E+000	-2,1109907E-003
03/09/2025 15:39:06.9511	1,528340294504165E+000	-2,0536913E-003
03/09/2025 15:39:11.9511	1,520643357324600E+000	-2,1682901E-003
03/09/2025 15:39:16.9511	1,516626524019237E+000	-2,1873901E-003
03/09/2025 15:39:21.9511	1,515497567105293E+000	-2,1300905E-003
03/09/2025 15:39:26.9511	1,513367438721655E+000	-2,0536913E-003
03/09/2025 15:39:31.9511	1,513577823567390E+000	-2,0918909E-003
03/09/2025 15:39:36.9511	1,499947339248656E+000	-2,0918909E-003
03/09/2025 15:39:41.9511	1,488625398278236E+000	-2,1300905E-003
03/09/2025 15:39:46.9511	1,484891965150833E+000	-2,1873901E-003
03/09/2025 15:39:51.9511	1,474135314702984E+000	-2,0918909E-003
03/09/2025 15:39:56.9511	1,477247203707694E+000	-2,1491903E-003
03/09/2025 15:40:01.9511	1,468825982451435E+000	-2,0727911E-003
03/09/2025 15:40:06.9511	1,469600439119339E+000	-2,1109907E-003
03/09/2025 15:40:11.9511	1,468898268008232E+000	-2,0918909E-003
03/09/2025 15:40:16.9511	1,464752105617521E+000	-2,1300905E-003
03/09/2025 15:40:21.9511	1,456757907485962E+000	-2,1491903E-003
03/09/2025 15:40:26.9511	1,461425905060768E+000	-2,2064899E-003
03/09/2025 15:40:31.9511	1,454641663622855E+000	-2,1682901E-003
03/09/2025 15:40:36.9511	1,443765289568901E+000	-2,1873901E-003
03/09/2025 15:40:41.9511	1,435107934498787E+000	-2,0918909E-003
03/09/2025 15:40:46.9511	1,443827548551557E+000	-2,1873901E-003
03/09/2025 15:40:51.9511	1,434362335538861E+000	-2,1491903E-003
03/09/2025 15:40:56.9511	1,423407217597960E+000	-2,1300905E-003
03/09/2025 15:41:01.9511	1,426343776559829E+000	-2,1300905E-003
03/09/2025 15:41:06.9511	1,427828651070595E+000	-2,0918909E-003
03/09/2025 15:41:11.9511	1,423542653775211E+000	-2,1873901E-003
03/09/2025 15:41:16.9511	1,416336420106888E+000	-2,0918909E-003
03/09/2025 15:41:21.9511	1,416285958194731E+000	-2,1682901E-003
03/09/2025 15:41:26.9511	1,401820760655403E+000	-2,1491903E-003
03/09/2025 15:41:31.9511	1,402829794764518E+000	-2,0727911E-003
03/09/2025 15:41:36.9511	1,406671192312238E+000	-2,1491903E-003
03/09/2025 15:41:41.9511	1,392960997438431E+000	-2,0345915E-003
03/09/2025 15:41:46.9511	1,384867625761032E+000	-2,1491903E-003
03/09/2025 15:41:51.9511	1,385488538813590E+000	-2,1109907E-003
03/09/2025 15:41:56.9511	1,368093969774246E+000	-2,1873901E-003
03/09/2025 15:42:01.9511	1,372544615793228E+000	-2,1682901E-003
03/09/2025 15:42:06.9511	1,367890551924706E+000	-2,1873901E-003
03/09/2025 15:42:11.9511	1,350127236962317E+000	-2,1873901E-003
03/09/2025 15:42:16.9510	1,355453406882283E+000	-2,0918909E-003
03/09/2025 15:42:21.9510	1,352998742914199E+000	-2,1682901E-003
03/09/2025 15:42:26.9510	1,341490513110160E+000	-2,0536913E-003
03/09/2025 15:42:31.9510	1,340550942826269E+000	-2,1491903E-003
03/09/2025 15:42:36.9510	1,343192552185059E+000	-2,1682901E-003
03/09/2025 15:42:41.9510	1,344003942847250E+000	-2,1873901E-003
03/09/2025 15:42:46.9510	1,327853554964066E+000	-2,1491903E-003
03/09/2025 15:42:51.9510	1,325775741577148E+000	-2,1491903E-003
03/09/2025 15:42:56.9510	1,326579852652547E+000	-2,0536913E-003
03/09/2025 15:43:01.9510	1,322809311485290E+000	-2,1300905E-003
03/09/2025 15:43:06.9510	1,314543520832061E+000	-2,0345915E-003
03/09/2025 15:43:11.9510	1,307600393700599E+000	-2,1491903E-003
03/09/2025 15:43:16.9510	1,298143526172636E+000	-2,0345915E-003
03/09/2025 15:43:21.9510	1,305635205030441E+000	-2,1491903E-003
03/09/2025 15:43:26.9510	1,303327359437940E+000	-2,1109907E-003
03/09/2025 15:43:31.9510	1,303639074969290E+000	-2,0918909E-003
03/09/2025 15:43:36.9510	1,289463151407242E+000	-2,1682901E-003
03/09/2025 15:43:41.9510	1,281252741742134E+000	-2,1300905E-003
03/09/2025 15:43:46.9510	1,283109440302848E+000	-2,1300905E-003
03/09/2025 15:43:51.9510	1,280632527375218E+000	-2,1300905E-003
03/09/2025 15:43:56.9510	1,274782339572905E+000	-2,1873901E-003
03/09/2025 15:44:01.9510	1,270809505367279E+000	-2,0536913E-003
03/09/2025 15:44:06.9510	1,262062888908385E+000	-2,0727911E-003
03/09/2025 15:44:11.9510	1,262065749144554E+000	-2,1109907E-003
03/09/2025 15:44:16.9510	1,259972525358201E+000	-2,1109907E-003
03/09/2025 15:44:21.9510	1,254916398572920E+000	-2,1873901E-003
03/09/2025 15:44:26.9510	1,260093902730942E+000	-2,0918909E-003
03/09/2025 15:44:31.9510	1,254190430140495E+000	-2,0727911E-003
03/09/2025 15:44:36.9510	1,242058119726181E+000	-2,1491903E-003
03/09/2025 15:44:41.9510	1,235030613493919E+000	-2,2446895E-003
03/09/2025 15:44:46.9510	1,230534048700333E+000	-2,0154917E-003
03/09/2025 15:44:51.9510	1,238752760958668E+000	-2,1109907E-003
03/09/2025 15:44:56.9510	1,242421715044973E+000	-2,1300905E-003
03/09/2025 15:45:01.9510	1,230658171486855E+000	-2,1300905E-003
03/09/2025 15:45:06.9510	1,234686950302123E+000	-2,1873901E-003
03/09/2025 15:45:11.9510	1,216817728996276E+000	-2,1491903E-003
03/09/2025 15:45:16.9510	1,214917275667190E+000	-2,2064899E-003
03/09/2025 15:45:21.9510	1,214375364780426E+000	-2,1300905E-003
03/09/2025 15:45:26.9510	1,215057949304580E+000	-2,1682901E-003
03/09/2025 15:45:31.9510	1,212226893377302E+000	-2,1109907E-003
03/09/2025 15:45:36.9510	1,203961538243291E+000	-2,1873901E-003
03/09/2025 15:45:41.9510	1,208446935367583E+000	-2,1300905E-003
03/09/2025 15:45:46.9510	1,196411895036693E+000	-2,1300905E-003
03/09/2025 15:45:51.9510	1,188582773208618E+000	-2,1682901E-003
03/09/2025 15:45:56.9510	1,178462548017500E+000	-2,2064899E-003
03/09/2025 15:46:01.9510	1,176470259094238E+000	-2,1682901E-003
03/09/2025 15:46:06.9510	1,174706783652304E+000	-2,0727911E-003
03/09/2025 15:46:11.9510	1,179956574463843E+000	-2,1682901E-003
03/09/2025 15:46:16.9510	1,168416499543190E+000	-2,1682901E-003
03/09/2025 15:46:21.9510	1,166191030597684E+000	-2,1300905E-003
03/09/2025 15:46:26.9510	1,151121050095556E+000	-2,1491903E-003
03/09/2025 15:46:31.9510	1,158538821148872E+000	-2,1300905E-003
03/09/2025 15:46:36.9510	1,160338405132294E+000	-2,1109907E-003
03/09/2025 15:46:41.9510	1,151072776460644E+000	-2,0918909E-003
03/09/2025 15:46:46.9510	1,146953564381599E+000	-2,0727911E-003
03/09/2025 15:46:51.9510	1,142659419560432E+000	-2,0918909E-003
03/09/2025 15:46:56.9510	1,142022844934463E+000	-2,0727911E-003
03/09/2025 15:47:01.9510	1,139060931563378E+000	-2,2064899E-003
03/09/2025 15:47:06.9510	1,134645295047758E+000	-2,0918909E-003
03/09/2025 15:47:11.9510	1,121508337640762E+000	-2,1682901E-003
03/09/2025 15:47:16.9510	1,124137381052970E+000	-2,1491903E-003
03/09/2025 15:47:21.9510	1,115584741997719E+000	-2,1682901E-003
03/09/2025 15:47:26.9510	1,122418527126312E+000	-1,9772921E-003
03/09/2025 15:47:31.9510	1,114602832722662E+000	-2,1873901E-003
03/09/2025 15:47:36.9510	1,113567094349861E+000	-2,1491903E-003
03/09/2025 15:47:41.9510	1,114877113699912E+000	-2,1300905E-003
03/09/2025 15:47:46.9510	1,101320488786698E+000	-2,2064899E-003
03/09/2025 15:47:51.9510	1,096876574754713E+000	-2,1109907E-003
03/09/2025 15:47:56.9510	1,108045427203177E+000	-2,1491903E-003
03/09/2025 15:48:01.9510	1,094694109344482E+000	-2,1682901E-003
03/09/2025 15:48:06.9510	1,086341619157791E+000	-2,1491903E-003
03/09/2025 15:48:11.9510	1,092743430423734E+000	-2,0536913E-003
03/09/2025 15:48:16.9510	1,088125975608822E+000	-2,1109907E-003
03/09/2025 15:48:21.9510	1,078359408092496E+000	-2,0727911E-003
03/09/2025 15:48:26.9510	1,069394623136517E+000	-2,1109907E-003
03/09/2025 15:48:31.9510	1,076489105105400E+000	-2,0345915E-003
03/09/2025 15:48:36.9510	1,067060752677914E+000	-1,9772921E-003
03/09/2025 15:48:41.9510	1,063816533565521E+000	-2,1682901E-003
03/09/2025 15:48:46.9510	1,063460107207298E+000	-2,1109907E-003
03/09/2025 15:48:51.9510	1,067669705533980E+000	-2,1109907E-003
03/09/2025 15:48:56.9510	1,068589184951781E+000	-2,1873901E-003
03/09/2025 15:49:01.9510	1,058880959630010E+000	-2,0345915E-003
03/09/2025 15:49:06.9510	1,055473970317838E+000	-2,2064899E-003
03/09/2025 15:49:11.9510	1,057901604008674E+000	-2,0154917E-003
03/09/2025 15:49:16.9510	1,060124146246910E+000	-2,1491903E-003
03/09/2025 15:49:21.9510	1,054195678782460E+000	-2,0918909E-003
03/09/2025 15:49:26.9510	1,058429394412038E+000	-2,0918909E-003
03/09/2025 15:49:31.9510	1,042061087656021E+000	-2,1109907E-003
03/09/2025 15:49:36.9510	1,047859947800635E+000	-2,2637893E-003
03/09/2025 15:49:41.9510	1,035499501633641E+000	-2,1491903E-003
03/09/2025 15:49:46.9510	1,028574418640137E+000	-2,2064899E-003
03/09/2025 15:49:51.9510	1,033133249902725E+000	-2,1682901E-003
03/09/2025 15:49:56.9510	1,015494598543643E+000	-2,0536913E-003
03/09/2025 15:50:01.9510	1,024637662136556E+000	-2,0727911E-003
03/09/2025 15:50:06.9510	1,023425135898588E+000	-2,1682901E-003
03/09/2025 15:50:11.9510	1,020731895494460E+000	-2,0345915E-003
03/09/2025 15:50:16.9510	1,021209164130685E+000	-2,0727911E-003
03/09/2025 15:50:21.9510	1,004264067590235E+000	-2,0345915E-003
03/09/2025 15:50:26.9510	1,000214111208915E+000	-2,1300905E-003
03/09/2025 15:50:31.9510	9,961778306841822E-001	-2,1873901E-003
03/09/2025 15:50:36.9510	9,976564193606379E-001	-2,1491903E-003
03/09/2025 15:50:41.9510	1,003114669585226E+000	-2,1682901E-003
03/09/2025 15:50:46.9510	1,002311032414433E+000	-2,0918909E-003
03/09/2025 15:50:51.9510	9,845693709373474E-001	-2,1491903E-003
03/09/2025 15:50:56.9510	9,867984426975234E-001	-2,1682901E-003
03/09/2025 15:51:01.9510	9,798083265304562E-001	-2,1300905E-003
03/09/2025 15:51:06.9510	9,728314560055722E-001	-1,9963919E-003
03/09/2025 15:51:11.9510	9,818171141386030E-001	-2,2255897E-003
03/09/2025 15:51:16.9510	9,756162760734558E-001	-2,0345915E-003
03/09/2025 15:51:21.9510	9,685635738134373E-001	-2,1109907E-003
03/09/2025 15:51:26.9510	9,587927937269205E-001	-2,1682901E-003
03/09/2025 15:51:31.9510	9,628597762823112E-001	-2,1491903E-003
03/09/2025 15:51:36.9510	9,553494923233963E-001	-2,1491903E-003
03/09/2025 15:51:41.9510	9,484520320892322E-001	-2,0918909E-003
03/09/2025 15:51:46.9510	9,579924063444132E-001	-2,1682901E-003
03/09/2025 15:51:51.9510	9,417662356257441E-001	-2,0154917E-003
03/09/2025 15:51:56.9510	9,493846095800400E-001	-2,1491903E-003
03/09/2025 15:52:01.9510	9,556573953747716E-001	-2,1491903E-003
03/09/2025 15:52:06.9510	9,515735961079557E-001	-2,1109907E-003
03/09/2025 15:52:11.9510	9,439336219668384E-001	-2,1300905E-003
03/09/2025 15:52:16.9510	9,486196834325771E-001	-2,1491903E-003
03/09/2025 15:52:21.9510	9,446123970270150E-001	-2,1682901E-003
03/09/2025 15:52:26.9510	9,322026008963569E-001	-2,0727911E-003
03/09/2025 15:52:31.9510	9,292209319829929E-001	-2,0727911E-003
03/09/2025 15:52:36.9510	9,320106076717369E-001	-2,1109907E-003
03/09/2025 15:52:41.9510	9,289013144493103E-001	-2,1682901E-003
03/09/2025 15:52:46.9510	9,264922340512260E-001	-2,1873901E-003
03/09/2025 15:52:51.9510	9,352388651967036E-001	-2,0536913E-003
03/09/2025 15:52:56.9510	9,267688879728313E-001	-2,0918909E-003
03/09/2025 15:53:01.9510	9,193218662977216E-001	-2,1491903E-003
03/09/2025 15:53:06.9510	9,161131559848776E-001	-2,1300905E-003
03/09/2025 15:53:11.9510	9,078337301611903E-001	-2,0918909E-003
03/09/2025 15:53:16.9510	9,051896459460238E-001	-2,1682901E-003
03/09/2025 15:53:21.9510	9,076515019774423E-001	-2,1491903E-003
03/09/2025 15:53:26.9510	9,037014455556864E-001	-2,1109907E-003
03/09/2025 15:53:31.9510	8,965705351710316E-001	-2,2064899E-003
03/09/2025 15:53:36.9510	8,964524046897857E-001	-2,1682901E-003
03/09/2025 15:53:41.9510	8,904302317261674E-001	-2,0727911E-003
03/09/2025 15:53:46.9510	8,870506278514863E-001	-2,0536913E-003
03/09/2025 15:53:51.9510	8,894572647452357E-001	-2,1682901E-003
03/09/2025 15:53:56.9510	8,836395551800731E-001	-2,0727911E-003
03/09/2025 15:54:01.9510	8,767809934377668E-001	-2,1491903E-003
03/09/2025 15:54:06.9510	8,745946665048603E-001	-2,1109907E-003
03/09/2025 15:54:11.9510	8,671589455842970E-001	-2,0727911E-003
03/09/2025 15:54:16.9510	8,633269995212558E-001	-2,2255897E-003
03/09/2025 15:54:21.9510	8,644033727526663E-001	-2,1491903E-003
03/09/2025 15:54:26.9510	8,690399153470985E-001	-2,1300905E-003
03/09/2025 15:54:31.9510	8,622197554826734E-001	-2,0536913E-003
03/09/2025 15:54:36.9510	8,502302453041057E-001	-2,0727911E-003
03/09/2025 15:54:41.9510	8,536339020967461E-001	-2,2637893E-003
03/09/2025 15:54:46.9510	8,593547156095500E-001	-2,1491903E-003
03/09/2025 15:54:51.9510	8,487567585706692E-001	-2,1109907E-003
03/09/2025 15:54:56.9510	8,494318442821474E-001	-2,2637893E-003
03/09/2025 15:55:01.9510	8,536529052615158E-001	-2,1109907E-003
03/09/2025 15:55:06.9510	8,605833748817435E-001	-2,1300905E-003
03/09/2025 15:55:11.9510	8,376139591813079E-001	-2,2064899E-003
03/09/2025 15:55:16.9510	8,542536102294900E-001	-1,9963919E-003
03/09/2025 15:55:21.9510	8,429347527861601E-001	-2,1682901E-003
03/09/2025 15:55:26.9510	8,326560120940210E-001	-2,0918909E-003
03/09/2025 15:55:31.9510	8,335510980844498E-001	-2,0918909E-003
03/09/2025 15:55:36.9510	8,220333544611922E-001	-2,1873901E-003
03/09/2025 15:55:41.9510	8,281403369545934E-001	-2,2064899E-003
03/09/2025 15:55:46.9510	8,199558476567255E-001	-2,1873901E-003
03/09/2025 15:55:51.9510	8,265899156689613E-001	-2,0536913E-003
03/09/2025 15:55:56.9510	8,305277476668351E-001	-2,2064899E-003
03/09/2025 15:56:01.9510	8,148312939524640E-001	-1,9963919E-003
03/09/2025 15:56:06.9510	8,188850411295885E-001	-2,1682901E-003
03/09/2025 15:56:11.9510	8,171560968041405E-001	-2,2064899E-003
03/09/2025 15:56:16.9510	8,160823465943334E-001	-2,1682901E-003
03/09/2025 15:56:21.9510	8,095756539344787E-001	-2,1300905E-003
03/09/2025 15:56:26.9510	8,144748425722099E-001	-2,1109907E-003
03/09/2025 15:56:31.9510	8,107913353204719E-001	-2,1109907E-003
03/09/2025 15:56:36.9510	8,145191314578035E-001	-2,1491903E-003
03/09/2025 15:56:41.9510	8,073156568646427E-001	-2,0918909E-003
03/09/2025 15:56:46.9510	7,983953350782395E-001	-2,1491903E-003
03/09/2025 15:56:51.9510	8,038678201556204E-001	-2,1109907E-003
03/09/2025 15:56:56.9510	8,035351762413967E-001	-2,1300905E-003
03/09/2025 15:57:01.9510	7,970353258609766E-001	-2,0918909E-003
03/09/2025 15:57:06.9510	7,857100415825840E-001	-2,1109907E-003
03/09/2025 15:57:11.9510	7,920718398928628E-001	-2,1682901E-003
03/09/2025 15:57:16.9510	7,837208500862122E-001	-2,2255897E-003
03/09/2025 15:57:21.9510	7,916252232432353E-001	-2,0918909E-003
03/09/2025 15:57:26.9510	7,945290963530525E-001	-2,2064899E-003
03/09/2025 15:57:31.9510	7,898088076233862E-001	-2,1109907E-003
03/09/2025 15:57:36.9510	8,008866194248201E-001	-2,2064899E-003
03/09/2025 15:57:41.9510	7,788184404253951E-001	-2,0918909E-003
03/09/2025 15:57:46.9510	7,915591754198061E-001	-2,0536913E-003
03/09/2025 15:57:51.9510	7,805224446296695E-001	-2,0727911E-003
03/09/2025 15:57:56.9510	7,769991234183307E-001	-2,1109907E-003
03/09/2025 15:58:01.9510	7,738565951466549E-001	-2,1109907E-003
03/09/2025 15:58:06.9510	7,623783777713768E-001	-2,1300905E-003
03/09/2025 15:58:11.9510	7,598610971331592E-001	-2,1300905E-003
03/09/2025 15:58:16.9510	7,634427043080327E-001	-2,1682901E-003
03/09/2025 15:58:21.9510	7,571808723807334E-001	-2,0345915E-003
03/09/2025 15:58:26.9510	7,489468268513679E-001	-2,1682901E-003
03/09/2025 15:58:31.9510	7,485622072935101E-001	-2,1873901E-003
03/09/2025 15:58:36.9510	7,530952222824086E-001	-2,0345915E-003
03/09/2025 15:58:41.9510	7,483117575764656E-001	-2,2637893E-003
03/09/2025 15:58:46.9510	7,468077591419218E-001	-2,0345915E-003
03/09/2025 15:58:51.9510	7,428334719300267E-001	-2,1300905E-003
03/09/2025 15:58:56.9510	7,437445292234415E-001	-2,2064899E-003
03/09/2025 15:59:01.9510	7,407060261726379E-001	-2,1682901E-003
03/09/2025 15:59:06.9510	7,364006621122360E-001	-2,1300905E-003
03/09/2025 15:59:11.9510	7,272962719440450E-001	-2,0918909E-003
03/09/2025 15:59:16.9510	7,262637181878073E-001	-2,1682901E-003
03/09/2025 15:59:21.9510	7,240364943504325E-001	-2,1682901E-003
03/09/2025 15:59:26.9510	7,226729336142541E-001	-2,1682901E-003
03/09/2025 15:59:31.9510	7,174194538354870E-001	-2,1109907E-003
03/09/2025 15:59:36.9510	7,101207464814179E-001	-2,1491903E-003
03/09/2025 15:59:41.9510	7,088103297710419E-001	-2,2255897E-003
03/09/2025 15:59:46.9510	7,017512544870357E-001	-2,1300905E-003
03/09/2025 15:59:51.9510	7,132651241540906E-001	-2,2064899E-003
03/09/2025 15:59:56.9510	7,079300715923313E-001	-2,0345915E-003
03/09/2025 16:00:01.9510	7,055829138398171E-001	-2,3592883E-003
03/09/2025 16:00:06.9510	7,092394973874088E-001	-1,9963919E-003
03/09/2025 16:00:11.9510	6,961811402559270E-001	-2,1300905E-003
03/09/2025 16:00:16.9510	6,981429975509643E-001	-2,1109907E-003
03/09/2025 16:00:21.9510	6,976830398201941E-001	-2,0154917E-003
03/09/2025 16:00:26.9510	6,968979310393331E-001	-2,1300905E-003
03/09/2025 16:00:31.9510	6,954786561846724E-001	-2,1109907E-003
03/09/2025 16:00:36.9510	6,904417361497872E-001	-2,1491903E-003
03/09/2025 16:00:41.9510	6,954779129266733E-001	-2,0918909E-003
03/09/2025 16:00:46.9510	6,861209857225418E-001	-2,1491903E-003
03/09/2025 16:00:51.9510	6,973343661427478E-001	-2,1300905E-003
03/09/2025 16:00:56.9510	6,900414802789687E-001	-2,1873901E-003
03/09/2025 16:01:01.9510	6,870227516293523E-001	-2,1300905E-003
03/09/2025 16:01:06.9510	6,810092104792584E-001	-2,1109907E-003
03/09/2025 16:01:11.9510	6,731986820101739E-001	-2,0918909E-003
03/09/2025 16:01:16.9510	6,697729797005654E-001	-1,9963919E-003
03/09/2025 16:01:21.9510	6,745917021393772E-001	-2,1109907E-003
03/09/2025 16:01:26.9510	6,746496158361417E-001	-2,0918909E-003
03/09/2025 16:01:31.9510	6,632788931131355E-001	-2,1873901E-003
03/09/2025 16:01:36.9510	6,664197551488869E-001	-2,2255897E-003
03/09/2025 16:01:41.9510	6,565218715786925E-001	-2,0918909E-003
03/09/2025 16:01:46.9510	6,616661350607860E-001	-2,2446895E-003
03/09/2025 16:01:51.9510	6,658139072895040E-001	-2,1491903E-003
03/09/2025 16:01:56.9510	6,615467084169387E-001	-2,0727911E-003
03/09/2025 16:02:01.9510	6,536836232066143E-001	-2,1682901E-003
03/09/2025 16:02:06.9510	6,575339611768705E-001	-2,2064899E-003
03/09/2025 16:02:11.9510	6,518251326322553E-001	-2,1300905E-003
03/09/2025 16:02:16.9510	6,464593315482139E-001	-2,2255897E-003
03/09/2025 16:02:21.9510	6,494334520936000E-001	-2,1300905E-003
03/09/2025 16:02:26.9510	6,555952279925350E-001	-2,1873901E-003
03/09/2025 16:02:31.9510	6,568715184450138E-001	-2,1682901E-003
03/09/2025 16:02:36.9510	6,483087177395799E-001	-2,0536913E-003
03/09/2025 16:02:41.9510	6,452926195502275E-001	-2,0536913E-003
03/09/2025 16:02:46.9510	6,416552503585802E-001	-2,0727911E-003
03/09/2025 16:02:51.9510	6,389873843431459E-001	-2,1109907E-003
03/09/2025 16:02:56.9510	6,399372874259943E-001	-2,2637893E-003
03/09/2025 16:03:01.9510	6,341710796356193E-001	-2,0727911E-003
03/09/2025 16:03:06.9510	6,361616751074788E-001	-2,2255897E-003
03/09/2025 16:03:11.9510	6,399135164976109E-001	-2,2446895E-003
03/09/2025 16:03:16.9510	6,354676360607145E-001	-2,1300905E-003
03/09/2025 16:03:21.9510	6,236122885227200E-001	-2,1300905E-003
03/09/2025 16:03:26.9510	6,262133777141567E-001	-2,1109907E-003
03/09/2025 16:03:31.9510	6,103030498147008E-001	-2,0918909E-003
03/09/2025 16:03:36.9510	6,183165421247478E-001	-2,0536913E-003
03/09/2025 16:03:41.9510	6,177188636541366E-001	-2,1300905E-003
03/09/2025 16:03:46.9510	6,159579176783561E-001	-2,1491903E-003
03/09/2025 16:03:51.9510	6,110976514816269E-001	-2,0727911E-003
03/09/2025 16:03:56.9510	6,062998780727387E-001	-2,1109907E-003
03/09/2025 16:04:00.9032	6,079028233888893E-001	-2,1109907E-003