File: data/phase_2a/Sergey/3/8.3/02 polarisation/C7D1_hr 0,1MFeCN6_in_1M_KCl_3306mL_symmetric_balanced_4_point_PEIS_03_CP_C16.txt
time/s	I/mA	<Ewe/V>
03/09/2025 14:14:00.8467	1,0523378E-001	-2,4603305E-002
03/09/2025 14:14:04.2467	1,3705294E-001	-1,1645888E-002
03/09/2025 14:14:07.6467	7,9778478E-002	-7,3711192E-003
03/09/2025 14:14:11.0467	1,1796144E-001	-5,5900612E-003
03/09/2025 14:14:14.4467	1,4978060E-001	-4,9703484E-003
03/09/2025 14:14:17.8467	1,7523590E-001	-4,8230886E-003
03/09/2025 14:14:21.2467	6,7050815E-002	-4,8367260E-003
03/09/2025 14:14:24.6467	2,2614653E-001	-4,8687756E-003
03/09/2025 14:14:28.0467	1,6250826E-001	-4,9120178E-003
03/09/2025 14:14:31.4467	6,0686987E-002	-4,9340585E-003
03/09/2025 14:14:34.8467	1,0523378E-001	-4,9532349E-003
03/09/2025 14:14:38.2467	1,2432528E-001	-4,9606077E-003
03/09/2025 14:14:41.6467	1,4978060E-001	-4,9489564E-003
03/09/2025 14:14:45.0467	1,4341676E-001	-4,9512484E-003
03/09/2025 14:14:48.4467	1,4978060E-001	-4,9519744E-003
03/09/2025 14:14:51.8467	1,5614443E-001	-4,9486896E-003
03/09/2025 14:14:55.2467	1,3705294E-001	-4,9550305E-003
03/09/2025 14:14:58.6467	1,0523378E-001	-4,9470086E-003
03/09/2025 14:15:02.0467	1,6887209E-001	-4,9565965E-003
03/09/2025 14:15:05.4467	1,2432528E-001	-4,9534640E-003
03/09/2025 14:15:08.8467	5,4323155E-002	-4,9531972E-003
03/09/2025 14:15:12.2467	1,6887209E-001	-4,9541518E-003
03/09/2025 14:15:15.6467	1,3705294E-001	-4,9518216E-003
03/09/2025 14:15:19.0467	1,6250826E-001	-4,9575516E-003
03/09/2025 14:15:22.4467	1,3068911E-001	-4,9551451E-003
03/09/2025 14:15:25.8467	7,3414646E-002	-4,9483068E-003
03/09/2025 14:15:29.2467	1,6887209E-001	-4,9558324E-003
03/09/2025 14:15:32.6467	1,1796144E-001	-4,9498733E-003
03/09/2025 14:15:36.0467	7,9778478E-002	-4,9490333E-003
03/09/2025 14:15:39.4467	1,6250826E-001	-4,9559474E-003
03/09/2025 14:15:42.8467	9,8869957E-002	-4,9511343E-003
03/09/2025 14:15:46.2467	6,0686987E-002	-4,9612951E-003
03/09/2025 14:15:49.6467	1,4341676E-001	-4,9645039E-003
03/09/2025 14:15:53.0467	1,3068911E-001	-4,9601491E-003
03/09/2025 14:15:56.4467	9,2506140E-002	-4,9599581E-003
03/09/2025 14:15:59.8467	9,8869957E-002	-4,9557178E-003
03/09/2025 14:16:03.2465	1,3259380E+002	5,1819105E-002
03/09/2025 14:16:06.6465	1,3256834E+002	5,9205312E-002
03/09/2025 14:16:10.0465	1,3262563E+002	6,2455144E-002
03/09/2025 14:16:13.4465	1,3261925E+002	6,3790336E-002
03/09/2025 14:16:16.8465	1,3258743E+002	6,4262785E-002
03/09/2025 14:16:20.2465	1,3267017E+002	6,4436600E-002
03/09/2025 14:16:23.6465	1,3258107E+002	6,4519569E-002
03/09/2025 14:16:27.0465	1,3253015E+002	6,4608157E-002
03/09/2025 14:16:30.4465	1,3256834E+002	6,4765915E-002
03/09/2025 14:16:33.8465	1,3260016E+002	6,4888112E-002
03/09/2025 14:16:37.2465	1,3261925E+002	6,5014102E-002
03/09/2025 14:16:40.6465	1,3265106E+002	6,5152802E-002
03/09/2025 14:16:44.0465	1,3264470E+002	6,5301701E-002
03/09/2025 14:16:47.4465	1,3261288E+002	6,5485671E-002
03/09/2025 14:16:50.8465	1,3262563E+002	6,5624878E-002
03/09/2025 14:16:54.2465	1,3261925E+002	6,5754943E-002
03/09/2025 14:16:57.6465	1,3254926E+002	6,5884791E-002
03/09/2025 14:17:01.0465	1,3261288E+002	6,6028573E-002
03/09/2025 14:17:04.4465	1,3256834E+002	6,6216707E-002
03/09/2025 14:17:07.8465	1,3260652E+002	6,6363156E-002
03/09/2025 14:17:11.2465	1,3265106E+002	6,6472717E-002
03/09/2025 14:17:14.6465	1,3257471E+002	6,6623874E-002
03/09/2025 14:17:18.0465	1,3260016E+002	6,6753641E-002
03/09/2025 14:17:21.4465	1,3258107E+002	6,6938981E-002
03/09/2025 14:17:24.8465	1,3255562E+002	6,7087613E-002
03/09/2025 14:17:28.2465	1,3256197E+002	6,7210160E-002
03/09/2025 14:17:31.6465	1,3260016E+002	6,7329876E-002
03/09/2025 14:17:35.0465	1,3265106E+002	6,7470945E-002
03/09/2025 14:17:38.4465	1,3269562E+002	6,7668326E-002
03/09/2025 14:17:41.8465	1,3251108E+002	6,7809545E-002
03/09/2025 14:17:45.2465	1,3256197E+002	6,7950852E-002
03/09/2025 14:17:48.6465	1,3251744E+002	6,8083331E-002
03/09/2025 14:17:52.0465	1,3261925E+002	6,8217181E-002
03/09/2025 14:17:55.4465	1,3256834E+002	6,8414256E-002
03/09/2025 14:17:58.8465	1,3260016E+002	6,8573549E-002
03/09/2025 14:18:02.1467	1,1159762E-001	1,6033227E-002
03/09/2025 14:18:05.5467	4,1595493E-002	6,0880645E-003
03/09/2025 14:18:08.9467	8,6142294E-002	2,1164864E-003
03/09/2025 14:18:12.3467	9,8869957E-002	5,0988619E-004
03/09/2025 14:18:15.7467	1,8159975E-001	2,5323798E-005
03/09/2025 14:18:19.1467	1,7523590E-001	-7,1435890E-005
03/09/2025 14:18:22.5467	1,1159762E-001	-4,0150382E-005
03/09/2025 14:18:25.9467	9,8869957E-002	2,4254206E-005
03/09/2025 14:18:29.3467	1,4341676E-001	6,3523432E-005
03/09/2025 14:18:32.7467	1,1159762E-001	8,0866070E-005
03/09/2025 14:18:36.1467	1,4341676E-001	1,0432065E-004
03/09/2025 14:18:39.5467	1,2432528E-001	9,2746151E-005
03/09/2025 14:18:42.9467	1,6250826E-001	8,7016211E-005
03/09/2025 14:18:46.3467	3,5231672E-002	8,9537389E-005
03/09/2025 14:18:49.7467	1,1796144E-001	8,2890656E-005
03/09/2025 14:18:53.1467	1,1796144E-001	8,3692845E-005
03/09/2025 14:18:56.5467	1,1796144E-001	8,2585051E-005
03/09/2025 14:18:59.9467	9,8869957E-002	7,9032485E-005
03/09/2025 14:19:03.3467	1,1159762E-001	8,8276800E-005
03/09/2025 14:19:06.7467	9,2506140E-002	8,0713275E-005
03/09/2025 14:19:10.1467	1,2432528E-001	8,8887988E-005
03/09/2025 14:19:13.5467	7,3414646E-002	8,7054410E-005
03/09/2025 14:19:16.9467	1,0523378E-001	8,6290420E-005
03/09/2025 14:19:20.3467	6,7050815E-002	9,0568778E-005
03/09/2025 14:19:23.7467	9,2506140E-002	8,1057064E-005
03/09/2025 14:19:27.1467	1,4341676E-001	8,2355858E-005
03/09/2025 14:19:30.5467	7,9778478E-002	8,5373627E-005
03/09/2025 14:19:33.9467	1,4341676E-001	7,8306693E-005
03/09/2025 14:19:37.3467	1,3068911E-001	8,0254875E-005
03/09/2025 14:19:40.7467	7,9778478E-002	8,1133461E-005
03/09/2025 14:19:44.1467	7,3414646E-002	8,0942467E-005
03/09/2025 14:19:47.5467	1,3068911E-001	8,8544199E-005
03/09/2025 14:19:50.9467	1,2432528E-001	7,8956087E-005
03/09/2025 14:19:54.3467	1,1796144E-001	8,1362668E-005
03/09/2025 14:19:57.7467	1,3068911E-001	8,4304032E-005
03/09/2025 14:20:01.0469	-1,3235150E+002	-4,3624103E-002
03/09/2025 14:20:04.4469	-1,3242787E+002	-5,9687279E-002
03/09/2025 14:20:07.8469	-1,3240878E+002	-6,5284140E-002
03/09/2025 14:20:11.2469	-1,3240878E+002	-6,7719825E-002
03/09/2025 14:20:14.6469	-1,3236423E+002	-6,8620458E-002
03/09/2025 14:20:18.0469	-1,3237695E+002	-6,8967305E-002
03/09/2025 14:20:21.4469	-1,3247241E+002	-6,9117472E-002
03/09/2025 14:20:24.8469	-1,3244060E+002	-6,9243185E-002
03/09/2025 14:20:28.2469	-1,3238332E+002	-6,9340482E-002
03/09/2025 14:20:31.6469	-1,3234514E+002	-6,9440454E-002
03/09/2025 14:20:35.0469	-1,3245332E+002	-6,9580719E-002
03/09/2025 14:20:38.4469	-1,3240242E+002	-6,9702610E-002
03/09/2025 14:20:41.8469	-1,3233878E+002	-6,9904082E-002
03/09/2025 14:20:45.2469	-1,3243423E+002	-7,0055276E-002
03/09/2025 14:20:48.6469	-1,3238968E+002	-7,0175529E-002
03/09/2025 14:20:52.0469	-1,3234514E+002	-7,0336387E-002
03/09/2025 14:20:55.4469	-1,3235785E+002	-7,0492275E-002
03/09/2025 14:20:58.8469	-1,3240242E+002	-7,0673801E-002
03/09/2025 14:21:02.2469	-1,3238332E+002	-7,0811279E-002
03/09/2025 14:21:05.6469	-1,3239604E+002	-7,0953839E-002
03/09/2025 14:21:09.0469	-1,3242149E+002	-7,1117416E-002
03/09/2025 14:21:12.4469	-1,3235150E+002	-7,1259521E-002
03/09/2025 14:21:15.8469	-1,3237061E+002	-7,1460560E-002
03/09/2025 14:21:19.2469	-1,3244060E+002	-7,1588032E-002
03/09/2025 14:21:22.6469	-1,3247241E+002	-7,1726434E-002
03/09/2025 14:21:26.0469	-1,3231967E+002	-7,1869373E-002
03/09/2025 14:21:29.4469	-1,3233878E+002	-7,2026640E-002
03/09/2025 14:21:32.8469	-1,3240878E+002	-7,2223566E-002
03/09/2025 14:21:36.2469	-1,3238968E+002	-7,2343998E-002
03/09/2025 14:21:39.6469	-1,3231967E+002	-7,2485916E-002
03/09/2025 14:21:43.0469	-1,3244060E+002	-7,2630420E-002
03/09/2025 14:21:46.4469	-1,3238332E+002	-7,2770812E-002
03/09/2025 14:21:49.8469	-1,3237061E+002	-7,2965667E-002
03/09/2025 14:21:53.2469	-1,3234514E+002	-7,3106922E-002
03/09/2025 14:21:56.6469	-1,3235785E+002	-7,3237263E-002
03/09/2025 14:22:00.0469	-1,3241513E+002	-7,3393002E-002
03/09/2025 14:22:03.3471	1,5909277E+002	5,2288387E-002
03/09/2025 14:22:06.7471	1,5914371E+002	6,7797363E-002
03/09/2025 14:22:10.1471	1,5912460E+002	7,4626654E-002
03/09/2025 14:22:13.5471	1,5908643E+002	7,7326722E-002
03/09/2025 14:22:16.9471	1,5907368E+002	7,8229338E-002
03/09/2025 14:22:20.3471	1,5909914E+002	7,8485161E-002
03/09/2025 14:22:23.7471	1,5904825E+002	7,8514732E-002
03/09/2025 14:22:27.1471	1,5907368E+002	7,8561597E-002
03/09/2025 14:22:30.5471	1,5911823E+002	7,8668147E-002
03/09/2025 14:22:33.9471	1,5905460E+002	7,8832932E-002
03/09/2025 14:22:37.3471	1,5907368E+002	7,9004906E-002
03/09/2025 14:22:40.7471	1,5906096E+002	7,9146363E-002
03/09/2025 14:22:44.1471	1,5906096E+002	7,9335108E-002
03/09/2025 14:22:47.5471	1,5909277E+002	7,9543032E-002
03/09/2025 14:22:50.9471	1,5894641E+002	7,9741403E-002
03/09/2025 14:22:54.3471	1,5904185E+002	7,9918332E-002
03/09/2025 14:22:57.7471	1,5904825E+002	8,0065556E-002
03/09/2025 14:23:01.1471	1,5902914E+002	8,0254726E-002
03/09/2025 14:23:04.5471	1,5906096E+002	8,0441937E-002
03/09/2025 14:23:07.9471	1,5905460E+002	8,0635920E-002
03/09/2025 14:23:11.3471	1,5919460E+002	8,0832385E-002
03/09/2025 14:23:14.7471	1,5904825E+002	8,0970399E-002
03/09/2025 14:23:18.1471	1,5907368E+002	8,1152104E-002
03/09/2025 14:23:21.5471	1,5907368E+002	8,1344061E-002
03/09/2025 14:23:24.9471	1,5913733E+002	8,1552863E-002
03/09/2025 14:23:28.3471	1,5908005E+002	8,1732854E-002
03/09/2025 14:23:31.7471	1,5908005E+002	8,1868969E-002
03/09/2025 14:23:35.1471	1,5906096E+002	8,2064047E-002
03/09/2025 14:23:38.5471	1,5904825E+002	8,2245499E-002
03/09/2025 14:23:41.9471	1,5906734E+002	8,2463726E-002
03/09/2025 14:23:45.3471	1,5916278E+002	8,2648084E-002
03/09/2025 14:23:48.7471	1,5905460E+002	8,2786061E-002
03/09/2025 14:23:52.1471	1,5904185E+002	8,2961775E-002
03/09/2025 14:23:55.5471	1,5911188E+002	8,3166867E-002
03/09/2025 14:23:58.9471	1,5907368E+002	8,3372466E-002
03/09/2025 14:24:02.2475	1,7523590E-001	1,9568335E-002
03/09/2025 14:24:05.6475	1,3068911E-001	8,0363229E-003
03/09/2025 14:24:09.0475	1,1796144E-001	3,3641250E-003
03/09/2025 14:24:12.4475	1,0523378E-001	1,5117100E-003
03/09/2025 14:24:15.8475	7,9778478E-002	9,4895286E-004
03/09/2025 14:24:19.2475	1,1796144E-001	8,3481229E-004
03/09/2025 14:24:22.6475	1,5614443E-001	8,7889470E-004
03/09/2025 14:24:26.0475	6,0686987E-002	9,5124485E-004
03/09/2025 14:24:29.4475	1,3705294E-001	1,0028906E-003
03/09/2025 14:24:32.8475	1,2432528E-001	1,0358188E-003
03/09/2025 14:24:36.2475	6,7050815E-002	1,0311203E-003
03/09/2025 14:24:39.6475	1,1796144E-001	1,0495326E-003
03/09/2025 14:24:43.0475	1,8796356E-001	1,0417780E-003
03/09/2025 14:24:46.4475	1,3068911E-001	1,0428858E-003
03/09/2025 14:24:49.8475	1,3705294E-001	1,0382636E-003
03/09/2025 14:24:53.2475	9,2506140E-002	1,0331831E-003
03/09/2025 14:24:56.6475	9,2506140E-002	1,0310056E-003
03/09/2025 14:25:00.0475	1,1796144E-001	1,0373468E-003
03/09/2025 14:25:03.4475	1,3705294E-001	1,0329920E-003
03/09/2025 14:25:06.8475	1,3068911E-001	1,0382254E-003
03/09/2025 14:25:10.2475	7,9778478E-002	1,0322663E-003
03/09/2025 14:25:13.6475	5,4323155E-002	1,0274913E-003
03/09/2025 14:25:17.0475	1,6887209E-001	1,0308529E-003
03/09/2025 14:25:20.4475	7,9778478E-002	1,0346345E-003
03/09/2025 14:25:23.8475	7,9778478E-002	1,0309292E-003
03/09/2025 14:25:27.2475	8,6142294E-002	1,0257723E-003
03/09/2025 14:25:30.6475	1,1159762E-001	1,0311585E-003
03/09/2025 14:25:34.0475	5,4323155E-002	1,0446429E-003
03/09/2025 14:25:37.4475	3,5231672E-002	1,0300125E-003
03/09/2025 14:25:40.8475	1,4341676E-001	1,0306237E-003
03/09/2025 14:25:44.2475	7,9778478E-002	1,0298215E-003
03/09/2025 14:25:47.6475	1,6887209E-001	1,0283316E-003
03/09/2025 14:25:51.0475	1,4341676E-001	1,0274913E-003
03/09/2025 14:25:54.4475	7,3414646E-002	1,0235950E-003
03/09/2025 14:25:57.8475	1,1796144E-001	1,0242444E-003
03/09/2025 14:26:01.1477	-1,5881865E+002	-5,2759741E-002
03/09/2025 14:26:04.5477	-1,5886957E+002	-7,0997886E-002
03/09/2025 14:26:07.9477	-1,5886957E+002	-7,7577852E-002
03/09/2025 14:26:11.3477	-1,5884413E+002	-8,0494508E-002
03/09/2025 14:26:14.7477	-1,5888866E+002	-8,1560813E-002
03/09/2025 14:26:18.1477	-1,5889502E+002	-8,1947550E-002
03/09/2025 14:26:21.5477	-1,5888231E+002	-8,2144849E-002
03/09/2025 14:26:24.9477	-1,5881865E+002	-8,2252912E-002
03/09/2025 14:26:28.3477	-1,5896503E+002	-8,2443953E-002
03/09/2025 14:26:31.7477	-1,5892049E+002	-8,2552172E-002
03/09/2025 14:26:35.1477	-1,5888866E+002	-8,2694389E-002
03/09/2025 14:26:38.5477	-1,5890138E+002	-8,2868196E-002
03/09/2025 14:26:41.9477	-1,5887593E+002	-8,3054990E-002
03/09/2025 14:26:45.3477	-1,5881865E+002	-8,3283693E-002
03/09/2025 14:26:48.7477	-1,5885684E+002	-8,3443254E-002
03/09/2025 14:26:52.1477	-1,5885048E+002	-8,3619282E-002
03/09/2025 14:26:55.5477	-1,5890138E+002	-8,3787166E-002
03/09/2025 14:26:58.9477	-1,5885048E+002	-8,3965480E-002
03/09/2025 14:27:02.3477	-1,5893958E+002	-8,4208809E-002
03/09/2025 14:27:05.7477	-1,5888866E+002	-8,4374748E-002
03/09/2025 14:27:09.1477	-1,5889502E+002	-8,4533662E-002
03/09/2025 14:27:12.5477	-1,5896503E+002	-8,4754646E-002
03/09/2025 14:27:15.9477	-1,5886957E+002	-8,4899880E-002
03/09/2025 14:27:19.3477	-1,5885684E+002	-8,5139319E-002
03/09/2025 14:27:22.7477	-1,5884413E+002	-8,5320264E-002
03/09/2025 14:27:26.1477	-1,5885684E+002	-8,5479863E-002
03/09/2025 14:27:29.5477	-1,5890776E+002	-8,5661851E-002
03/09/2025 14:27:32.9477	-1,5883774E+002	-8,5827217E-002
03/09/2025 14:27:36.3477	-1,5891411E+002	-8,6046979E-002
03/09/2025 14:27:39.7477	-1,5887593E+002	-8,6231790E-002
03/09/2025 14:27:43.1477	-1,5887593E+002	-8,6400211E-002
03/09/2025 14:27:46.5477	-1,5895229E+002	-8,6588383E-002
03/09/2025 14:27:49.9477	-1,5887593E+002	-8,6745918E-002
03/09/2025 14:27:53.3477	-1,5886320E+002	-8,6990319E-002
03/09/2025 14:27:56.7477	-1,5886957E+002	-8,7181896E-002
03/09/2025 14:28:00.1477	-1,5891411E+002	-8,7341219E-002
03/09/2025 14:28:03.4479	1,8561086E+002	6,2188283E-002
03/09/2025 14:28:06.8479	1,8564905E+002	8,0131799E-002
03/09/2025 14:28:10.2479	1,8561722E+002	8,8051535E-002
03/09/2025 14:28:13.6479	1,8557268E+002	9,1175504E-002
03/09/2025 14:28:17.0479	1,8560449E+002	9,2205442E-002
03/09/2025 14:28:20.4479	1,8562360E+002	9,2549123E-002
03/09/2025 14:28:23.8479	1,8569357E+002	9,2627436E-002
03/09/2025 14:28:27.2479	1,8568723E+002	9,2661276E-002
03/09/2025 14:28:30.6479	1,8560449E+002	9,2761211E-002
03/09/2025 14:28:34.0479	1,8563631E+002	9,2921458E-002
03/09/2025 14:28:37.4479	1,8561086E+002	9,3160242E-002
03/09/2025 14:28:40.8479	1,8566177E+002	9,3371786E-002
03/09/2025 14:28:44.2479	1,8561086E+002	9,3546629E-002
03/09/2025 14:28:47.6479	1,8561722E+002	9,3762919E-002
03/09/2025 14:28:51.0479	1,8559813E+002	9,3992345E-002
03/09/2025 14:28:54.4479	1,8561722E+002	9,4246075E-002
03/09/2025 14:28:57.8479	1,8563631E+002	9,4468541E-002
03/09/2025 14:29:01.2479	1,8563631E+002	9,4629630E-002
03/09/2025 14:29:04.6479	1,8561086E+002	9,4836749E-002
03/09/2025 14:29:08.0479	1,8568088E+002	9,5045432E-002
03/09/2025 14:29:11.4479	1,8560449E+002	9,5318250E-002
03/09/2025 14:29:14.8479	1,8568088E+002	9,5530383E-002
03/09/2025 14:29:18.2479	1,8563631E+002	9,5704302E-002
03/09/2025 14:29:21.6479	1,8557268E+002	9,5930025E-002
03/09/2025 14:29:25.0479	1,8559813E+002	9,6138589E-002
03/09/2025 14:29:28.4479	1,8566812E+002	9,6389987E-002
03/09/2025 14:29:31.8479	1,8565540E+002	9,6623689E-002
03/09/2025 14:29:35.2479	1,8559813E+002	9,6802689E-002
03/09/2025 14:29:38.6479	1,8562994E+002	9,6995406E-002
03/09/2025 14:29:42.0479	1,8564267E+002	9,7219527E-002
03/09/2025 14:29:45.4479	1,8559813E+002	9,7501367E-002
03/09/2025 14:29:48.8479	1,8559177E+002	9,7707339E-002
03/09/2025 14:29:52.2479	1,8563631E+002	9,7897686E-002
03/09/2025 14:29:55.6479	1,8559177E+002	9,8082304E-002
03/09/2025 14:29:59.0479	1,8563631E+002	9,8283045E-002
03/09/2025 14:30:02.3483	9,2506140E-002	2,2928758E-002
03/09/2025 14:30:05.7483	5,4323155E-002	9,8829316E-003
03/09/2025 14:30:09.1483	1,6250826E-001	4,5950697E-003
03/09/2025 14:30:12.5483	1,0523378E-001	2,5156345E-003
03/09/2025 14:30:15.9483	1,6250826E-001	1,8753704E-003
03/09/2025 14:30:19.3483	1,4978060E-001	1,7597784E-003
03/09/2025 14:30:22.7483	8,6142294E-002	1,8054269E-003
03/09/2025 14:30:26.1483	1,1159762E-001	1,8868685E-003
03/09/2025 14:30:29.5483	2,0069122E-001	1,9532593E-003
03/09/2025 14:30:32.9483	9,8869957E-002	1,9857292E-003
03/09/2025 14:30:36.3483	1,3705294E-001	1,9963868E-003
03/09/2025 14:30:39.7483	9,8869957E-002	1,9994047E-003
03/09/2025 14:30:43.1483	1,3705294E-001	1,9966161E-003
03/09/2025 14:30:46.5483	1,5614443E-001	1,9899311E-003
03/09/2025 14:30:49.9483	9,8869957E-002	1,9945533E-003
03/09/2025 14:30:53.3483	1,2432528E-001	1,9842011E-003
03/09/2025 14:30:56.7483	1,4978060E-001	1,9882887E-003
03/09/2025 14:31:00.1483	1,4341676E-001	1,9884033E-003
03/09/2025 14:31:03.5483	1,0523378E-001	1,9919558E-003
03/09/2025 14:31:06.9483	1,2432528E-001	1,9886706E-003
03/09/2025 14:31:10.3483	1,1796144E-001	1,9890524E-003
03/09/2025 14:31:13.7483	1,2432528E-001	1,9912682E-003
03/09/2025 14:31:17.1483	9,8869957E-002	1,9881739E-003
03/09/2025 14:31:20.5483	1,2432528E-001	1,9840102E-003
03/09/2025 14:31:23.9483	9,2506140E-002	1,9879448E-003
03/09/2025 14:31:27.3483	2,0069122E-001	1,9848507E-003
03/09/2025 14:31:30.7483	1,3068911E-001	1,9844687E-003
03/09/2025 14:31:34.1483	7,9778478E-002	1,9931018E-003
03/09/2025 14:31:37.5483	8,6142294E-002	1,9896638E-003
03/09/2025 14:31:40.9483	1,5614443E-001	1,9868752E-003
03/09/2025 14:31:44.3483	6,7050815E-002	1,9832463E-003
03/09/2025 14:31:47.7483	9,8869957E-002	1,9836281E-003
03/09/2025 14:31:51.1483	6,7050815E-002	1,9953938E-003
03/09/2025 14:31:54.5483	1,1796144E-001	1,9865313E-003
03/09/2025 14:31:57.9483	8,6142294E-002	1,9824058E-003
03/09/2025 14:32:01.2485	-1,8531763E+002	-6,2156890E-002
03/09/2025 14:32:04.6485	-1,8539400E+002	-8,2443371E-002
03/09/2025 14:32:08.0485	-1,8537491E+002	-8,9966379E-002
03/09/2025 14:32:11.4485	-1,8533673E+002	-9,3246967E-002
03/09/2025 14:32:14.8485	-1,8528583E+002	-9,4568551E-002
03/09/2025 14:32:18.2485	-1,8533037E+002	-9,5055483E-002
03/09/2025 14:32:21.6485	-1,8534309E+002	-9,5222421E-002
03/09/2025 14:32:25.0485	-1,8538129E+002	-9,5368341E-002
03/09/2025 14:32:28.4485	-1,8530492E+002	-9,5457956E-002
03/09/2025 14:32:31.8485	-1,8540674E+002	-9,5671915E-002
03/09/2025 14:32:35.2485	-1,8539400E+002	-9,5894538E-002
03/09/2025 14:32:38.6485	-1,8532401E+002	-9,6081987E-002
03/09/2025 14:32:42.0485	-1,8538765E+002	-9,6308090E-002
03/09/2025 14:32:45.4485	-1,8537491E+002	-9,6497715E-002
03/09/2025 14:32:48.8485	-1,8534946E+002	-9,6761562E-002
03/09/2025 14:32:52.2485	-1,8531128E+002	-9,6980058E-002
03/09/2025 14:32:55.6485	-1,8536220E+002	-9,7217470E-002
03/09/2025 14:32:59.0485	-1,8533037E+002	-9,7440168E-002
03/09/2025 14:33:02.4485	-1,8535582E+002	-9,7617038E-002
03/09/2025 14:33:05.8485	-1,8540038E+002	-9,7891733E-002
03/09/2025 14:33:09.2485	-1,8540674E+002	-9,8128073E-002
03/09/2025 14:33:12.6485	-1,8537491E+002	-9,8310634E-002
03/09/2025 14:33:16.0485	-1,8537491E+002	-9,8534934E-002
03/09/2025 14:33:19.4485	-1,8533673E+002	-9,8721273E-002
03/09/2025 14:33:22.8485	-1,8535582E+002	-9,8933853E-002
03/09/2025 14:33:26.2485	-1,8538765E+002	-9,9208400E-002
03/09/2025 14:33:29.6485	-1,8535582E+002	-9,9425219E-002
03/09/2025 14:33:33.0485	-1,8531128E+002	-9,9635161E-002
03/09/2025 14:33:36.4485	-1,8535582E+002	-9,9811912E-002
03/09/2025 14:33:39.8485	-1,8536855E+002	-1,0005563E-001
03/09/2025 14:33:43.2485	-1,8535582E+002	-1,0028704E-001
03/09/2025 14:33:46.6485	-1,8534309E+002	-1,0050558E-001
03/09/2025 14:33:50.0485	-1,8534946E+002	-1,0073157E-001
03/09/2025 14:33:53.4485	-1,8531128E+002	-1,0090335E-001
03/09/2025 14:33:56.8485	-1,8533673E+002	-1,0115868E-001
03/09/2025 14:34:00.2485	-1,8529855E+002	-1,0140613E-001
03/09/2025 14:34:03.5487	2,1219894E+002	7,2199076E-002
03/09/2025 14:34:06.9487	2,1210985E+002	9,2538089E-002
03/09/2025 14:34:10.3487	2,1203986E+002	1,0164487E-001
03/09/2025 14:34:13.7487	2,1214803E+002	1,0516059E-001
03/09/2025 14:34:17.1487	2,1206529E+002	1,0628098E-001
03/09/2025 14:34:20.5487	2,1214166E+002	1,0661721E-001
03/09/2025 14:34:23.9487	2,1212894E+002	1,0678601E-001
03/09/2025 14:34:27.3487	2,1216077E+002	1,0684912E-001
03/09/2025 14:34:30.7487	2,1217349E+002	1,0696559E-001
03/09/2025 14:34:34.1487	2,1212257E+002	1,0711870E-001
03/09/2025 14:34:37.5487	2,1212894E+002	1,0733158E-001
03/09/2025 14:34:40.9487	2,1209712E+002	1,0764933E-001
03/09/2025 14:34:44.3487	2,1219894E+002	1,0791596E-001
03/09/2025 14:34:47.7487	2,1217349E+002	1,0813661E-001
03/09/2025 14:34:51.1487	2,1214166E+002	1,0837458E-001
03/09/2025 14:34:54.5487	2,1212257E+002	1,0859859E-001
03/09/2025 14:34:57.9487	2,1217984E+002	1,0893444E-001
03/09/2025 14:35:01.3487	2,1212257E+002	1,0919450E-001
03/09/2025 14:35:04.7487	2,1211621E+002	1,0942114E-001
03/09/2025 14:35:08.1487	2,1214803E+002	1,0962478E-001
03/09/2025 14:35:11.5487	2,1209712E+002	1,0984818E-001
03/09/2025 14:35:14.9487	2,1211621E+002	1,1019499E-001
03/09/2025 14:35:18.3487	2,1214803E+002	1,1047082E-001
03/09/2025 14:35:21.7487	2,1209074E+002	1,1068566E-001
03/09/2025 14:35:25.1487	2,1215439E+002	1,1090275E-001
03/09/2025 14:35:28.5487	2,1213531E+002	1,1115464E-001
03/09/2025 14:35:31.9487	2,1217984E+002	1,1145947E-001
03/09/2025 14:35:35.3487	2,1211621E+002	1,1173936E-001
03/09/2025 14:35:38.7487	2,1217349E+002	1,1197387E-001
03/09/2025 14:35:42.1487	2,1211621E+002	1,1217816E-001
03/09/2025 14:35:45.5487	2,1205257E+002	1,1240465E-001
03/09/2025 14:35:48.9487	2,1219894E+002	1,1275185E-001
03/09/2025 14:35:52.3487	2,1216711E+002	1,1301909E-001
03/09/2025 14:35:55.7487	2,1216711E+002	1,1324905E-001
03/09/2025 14:35:59.1487	2,1216711E+002	1,1348463E-001
03/09/2025 14:36:02.4491	1,6250826E-001	2,6189173E-002
03/09/2025 14:36:05.8491	1,4978060E-001	1,1691684E-002
03/09/2025 14:36:09.2491	1,1796144E-001	5,8116522E-003
03/09/2025 14:36:12.6491	5,4323155E-002	3,4925903E-003
03/09/2025 14:36:16.0491	9,8869957E-002	2,8027429E-003
03/09/2025 14:36:19.4491	7,3414646E-002	2,6891371E-003
03/09/2025 14:36:22.8491	1,0523378E-001	2,7395990E-003
03/09/2025 14:36:26.2491	1,1796144E-001	2,8379250E-003
03/09/2025 14:36:29.6491	1,4978060E-001	2,9056147E-003
03/09/2025 14:36:33.0491	5,4323155E-002	2,9401854E-003
03/09/2025 14:36:36.4491	2,1341887E-001	2,9591324E-003
03/09/2025 14:36:39.8491	4,1595493E-002	2,9550451E-003
03/09/2025 14:36:43.2491	5,4323155E-002	2,9638691E-003
03/09/2025 14:36:46.6491	9,2506140E-002	2,9555417E-003
03/09/2025 14:36:50.0491	1,3068911E-001	2,9513014E-003
03/09/2025 14:36:53.4491	6,0686987E-002	2,9548921E-003
03/09/2025 14:36:56.8491	6,7050815E-002	2,9485894E-003
03/09/2025 14:37:00.2491	7,9778478E-002	2,9452275E-003
03/09/2025 14:37:03.6491	1,1159762E-001	2,9557326E-003
03/09/2025 14:37:07.0491	9,8869957E-002	2,9481309E-003
03/09/2025 14:37:10.4491	1,6250826E-001	2,9506902E-003
03/09/2025 14:37:13.8491	7,3414646E-002	2,9474813E-003
03/09/2025 14:37:17.2491	1,6887209E-001	2,9534025E-003
03/09/2025 14:37:20.6491	1,5614443E-001	2,9558472E-003
03/09/2025 14:37:24.0491	1,8159975E-001	2,9438143E-003
03/09/2025 14:37:27.4491	1,1159762E-001	2,9495060E-003
03/09/2025 14:37:30.8491	4,7959324E-002	2,9515307E-003
03/09/2025 14:37:34.2491	8,6142294E-002	2,9452275E-003
03/09/2025 14:37:37.6491	1,6887209E-001	2,9518746E-003
03/09/2025 14:37:41.0491	1,6887209E-001	2,9422480E-003
03/09/2025 14:37:44.4491	1,1796144E-001	2,9401854E-003
03/09/2025 14:37:47.8491	1,0523378E-001	2,9465647E-003
03/09/2025 14:37:51.2491	2,2504006E-002	2,9417896E-003
03/09/2025 14:37:54.6491	7,9778478E-002	2,9451514E-003
03/09/2025 14:37:58.0491	1,1159762E-001	2,9415987E-003
03/09/2025 14:38:01.3493	-2,1184209E+002	-7,1718447E-002
03/09/2025 14:38:04.7493	-2,1177846E+002	-9,3968287E-002
03/09/2025 14:38:08.1493	-2,1182935E+002	-1,0247966E-001
03/09/2025 14:38:11.5493	-2,1183574E+002	-1,0623942E-001
03/09/2025 14:38:14.9493	-2,1182300E+002	-1,0759772E-001
03/09/2025 14:38:18.3493	-2,1182300E+002	-1,0819348E-001
03/09/2025 14:38:21.7493	-2,1179755E+002	-1,0845129E-001
03/09/2025 14:38:25.1493	-2,1179755E+002	-1,0855802E-001
03/09/2025 14:38:28.5493	-2,1190572E+002	-1,0874265E-001
03/09/2025 14:38:31.9493	-2,1182300E+002	-1,0889842E-001
03/09/2025 14:38:35.3493	-2,1184845E+002	-1,0915238E-001
03/09/2025 14:38:38.7493	-2,1184209E+002	-1,0942000E-001
03/09/2025 14:38:42.1493	-2,1183574E+002	-1,0968041E-001
03/09/2025 14:38:45.5493	-2,1188026E+002	-1,0995908E-001
03/09/2025 14:38:48.9493	-2,1184209E+002	-1,1016547E-001
03/09/2025 14:38:52.3493	-2,1183574E+002	-1,1046400E-001
03/09/2025 14:38:55.7493	-2,1192482E+002	-1,1071974E-001
03/09/2025 14:38:59.1493	-2,1180389E+002	-1,1096372E-001
03/09/2025 14:39:02.5493	-2,1185481E+002	-1,1123972E-001
03/09/2025 14:39:05.9493	-2,1184845E+002	-1,1145069E-001
03/09/2025 14:39:09.3493	-2,1180389E+002	-1,1174407E-001
03/09/2025 14:39:12.7493	-2,1179117E+002	-1,1203813E-001
03/09/2025 14:39:16.1493	-2,1181027E+002	-1,1229052E-001
03/09/2025 14:39:19.5493	-2,1179117E+002	-1,1252697E-001
03/09/2025 14:39:22.9493	-2,1182935E+002	-1,1274467E-001
03/09/2025 14:39:26.3493	-2,1180389E+002	-1,1301947E-001
03/09/2025 14:39:29.7493	-2,1186754E+002	-1,1330024E-001
03/09/2025 14:39:33.1493	-2,1186118E+002	-1,1358002E-001
03/09/2025 14:39:36.5493	-2,1182935E+002	-1,1384001E-001
03/09/2025 14:39:39.9493	-2,1181664E+002	-1,1401825E-001
03/09/2025 14:39:43.3493	-2,1182935E+002	-1,1430975E-001
03/09/2025 14:39:46.7493	-2,1179755E+002	-1,1459823E-001
03/09/2025 14:39:50.1493	-2,1179117E+002	-1,1485103E-001
03/09/2025 14:39:53.5493	-2,1184845E+002	-1,1511175E-001
03/09/2025 14:39:56.9493	-2,1188026E+002	-1,1533120E-001
03/09/2025 14:40:00.3493	-2,1179755E+002	-1,1560253E-001
03/09/2025 14:40:03.6495	2,3852611E+002	8,2498379E-002
03/09/2025 14:40:07.0495	2,3861520E+002	1,0498196E-001
03/09/2025 14:40:10.4495	2,3860883E+002	1,1525889E-001
03/09/2025 14:40:13.8495	2,3857701E+002	1,1924373E-001
03/09/2025 14:40:17.2495	2,3857063E+002	1,2053559E-001
03/09/2025 14:40:20.6495	2,3864700E+002	1,2087966E-001
03/09/2025 14:40:24.0495	2,3869156E+002	1,2095571E-001
03/09/2025 14:40:27.4495	2,3860246E+002	1,2112066E-001
03/09/2025 14:40:30.8495	2,3858974E+002	1,2129489E-001
03/09/2025 14:40:34.2495	2,3857701E+002	1,2148351E-001
03/09/2025 14:40:37.6495	2,3857701E+002	1,2170034E-001
03/09/2025 14:40:41.0495	2,3853883E+002	1,2196559E-001
03/09/2025 14:40:44.4495	2,3860883E+002	1,2235019E-001
03/09/2025 14:40:47.8495	2,3864700E+002	1,2267080E-001
03/09/2025 14:40:51.2495	2,3862155E+002	1,2296459E-001
03/09/2025 14:40:54.6495	2,3851337E+002	1,2321137E-001
03/09/2025 14:40:58.0495	2,3864700E+002	1,2344480E-001
03/09/2025 14:41:01.4495	2,3860883E+002	1,2385079E-001
03/09/2025 14:41:04.8495	2,3853246E+002	1,2416693E-001
03/09/2025 14:41:08.2495	2,3853246E+002	1,2440552E-001
03/09/2025 14:41:11.6495	2,3860883E+002	1,2465576E-001
03/09/2025 14:41:15.0495	2,3853883E+002	1,2492068E-001
03/09/2025 14:41:18.4495	2,3858974E+002	1,2529820E-001
03/09/2025 14:41:21.8495	2,3858974E+002	1,2562534E-001
03/09/2025 14:41:25.2495	2,3862791E+002	1,2587567E-001
03/09/2025 14:41:28.6495	2,3860246E+002	1,2611580E-001
03/09/2025 14:41:32.0495	2,3851974E+002	1,2636669E-001
03/09/2025 14:41:35.4495	2,3860883E+002	1,2676898E-001
03/09/2025 14:41:38.8495	2,3858337E+002	1,2708828E-001
03/09/2025 14:41:42.2495	2,3856429E+002	1,2735470E-001
03/09/2025 14:41:45.6495	2,3861520E+002	1,2762880E-001
03/09/2025 14:41:49.0495	2,3862155E+002	1,2788230E-001
03/09/2025 14:41:52.4495	2,3860883E+002	1,2825540E-001
03/09/2025 14:41:55.8495	2,3865974E+002	1,2861030E-001
03/09/2025 14:41:59.2495	2,3858337E+002	1,2886350E-001
03/09/2025 14:42:02.5499	1,0523378E-001	2,9263632E-002
03/09/2025 14:42:05.9499	1,0523378E-001	1,3471481E-002
03/09/2025 14:42:09.3499	7,3414646E-002	7,0056585E-003
03/09/2025 14:42:12.7499	1,3068911E-001	4,4828397E-003
03/09/2025 14:42:16.1499	1,5614443E-001	3,7410790E-003
03/09/2025 14:42:19.5499	1,3068911E-001	3,6092901E-003
03/09/2025 14:42:22.9499	1,8159975E-001	3,6785463E-003
03/09/2025 14:42:26.3499	8,6142294E-002	3,7842828E-003
03/09/2025 14:42:29.7499	1,1159762E-001	3,8585812E-003
03/09/2025 14:42:33.1499	9,8869957E-002	3,9077057E-003
03/09/2025 14:42:36.5499	1,3068911E-001	3,9061396E-003
03/09/2025 14:42:39.9499	1,2432528E-001	3,9237496E-003
03/09/2025 14:42:43.3499	1,1796144E-001	3,9137793E-003
03/09/2025 14:42:46.7499	1,3705294E-001	3,9077820E-003
03/09/2025 14:42:50.1499	1,3068911E-001	3,9034656E-003
03/09/2025 14:42:53.5499	1,4978060E-001	3,9089280E-003
03/09/2025 14:42:56.9499	6,7050815E-002	3,9044206E-003
03/09/2025 14:43:00.3499	1,3705294E-001	3,9089280E-003
03/09/2025 14:43:03.7499	9,2506140E-002	3,8999512E-003
03/09/2025 14:43:07.1499	9,2506140E-002	3,9018232E-003
03/09/2025 14:43:10.5499	1,1159762E-001	3,9015175E-003
03/09/2025 14:43:13.9499	8,6142294E-002	3,9039240E-003
03/09/2025 14:43:17.3499	7,9778478E-002	3,9081643E-003
03/09/2025 14:43:20.7499	4,7959324E-002	3,9046498E-003
03/09/2025 14:43:24.1499	8,6142294E-002	3,9016320E-003
03/09/2025 14:43:27.5499	1,3705294E-001	3,9057194E-003
03/09/2025 14:43:30.9499	1,6887209E-001	3,9019759E-003
03/09/2025 14:43:34.3499	1,2432528E-001	3,9032365E-003
03/09/2025 14:43:37.7499	1,2432528E-001	3,9050321E-003
03/09/2025 14:43:41.1499	1,3068911E-001	3,9010593E-003
03/09/2025 14:43:44.5499	1,4341676E-001	3,9008681E-003
03/09/2025 14:43:47.9499	1,3068911E-001	3,8963605E-003
03/09/2025 14:43:51.3499	2,0069122E-001	3,8947943E-003
03/09/2025 14:43:54.7499	9,2506140E-002	3,8997985E-003
03/09/2025 14:43:58.1499	1,3705294E-001	3,8976213E-003
03/09/2025 14:44:01.4501	-2,3834743E+002	-8,1499048E-002
03/09/2025 14:44:04.8501	-2,3829016E+002	-1,0554510E-001
03/09/2025 14:44:08.2501	-2,3829016E+002	-1,1507087E-001
03/09/2025 14:44:11.6501	-2,3834106E+002	-1,1926275E-001
03/09/2025 14:44:15.0501	-2,3833472E+002	-1,2083279E-001
03/09/2025 14:44:18.4501	-2,3828378E+002	-1,2139368E-001
03/09/2025 14:44:21.8501	-2,3836017E+002	-1,2170462E-001
03/09/2025 14:44:25.2501	-2,3832198E+002	-1,2188908E-001
03/09/2025 14:44:28.6501	-2,3834106E+002	-1,2210048E-001
03/09/2025 14:44:32.0501	-2,3830289E+002	-1,2236521E-001
03/09/2025 14:44:35.4501	-2,3830289E+002	-1,2253886E-001
03/09/2025 14:44:38.8501	-2,3835381E+002	-1,2285489E-001
03/09/2025 14:44:42.2501	-2,3834106E+002	-1,2318501E-001
03/09/2025 14:44:45.6501	-2,3829016E+002	-1,2348679E-001
03/09/2025 14:44:49.0501	-2,3834106E+002	-1,2376332E-001
03/09/2025 14:44:52.4501	-2,3830289E+002	-1,2403121E-001
03/09/2025 14:44:55.8501	-2,3833472E+002	-1,2434551E-001
03/09/2025 14:44:59.2501	-2,3830289E+002	-1,2463098E-001
03/09/2025 14:45:02.6501	-2,3833472E+002	-1,2493321E-001
03/09/2025 14:45:06.0501	-2,3832834E+002	-1,2523384E-001
03/09/2025 14:45:09.4501	-2,3830289E+002	-1,2545063E-001
03/09/2025 14:45:12.8501	-2,3830923E+002	-1,2579080E-001
03/09/2025 14:45:16.2501	-2,3830289E+002	-1,2611409E-001
03/09/2025 14:45:19.6501	-2,3831561E+002	-1,2641846E-001
03/09/2025 14:45:23.0501	-2,3828378E+002	-1,2671588E-001
03/09/2025 14:45:26.4501	-2,3834743E+002	-1,2696460E-001
03/09/2025 14:45:29.8501	-2,3829652E+002	-1,2729262E-001
03/09/2025 14:45:33.2501	-2,3833472E+002	-1,2760055E-001
03/09/2025 14:45:36.6501	-2,3832834E+002	-1,2793666E-001
03/09/2025 14:45:40.0501	-2,3825835E+002	-1,2823592E-001
03/09/2025 14:45:43.4501	-2,3835381E+002	-1,2846079E-001
03/09/2025 14:45:46.8501	-2,3825835E+002	-1,2879062E-001
03/09/2025 14:45:50.2501	-2,3830923E+002	-1,2910224E-001
03/09/2025 14:45:53.6501	-2,3829652E+002	-1,2939762E-001
03/09/2025 14:45:57.0501	-2,3831561E+002	-1,2971722E-001
03/09/2025 14:46:00.4501	-2,3832834E+002	-1,2995414E-001
03/09/2025 14:46:03.7503	2,6507599E+002	9,3059741E-002
03/09/2025 14:46:07.1503	2,6506326E+002	1,1765011E-001
03/09/2025 14:46:10.5503	2,6510147E+002	1,2897986E-001
03/09/2025 14:46:13.9503	2,6512054E+002	1,3348684E-001
03/09/2025 14:46:17.3503	2,6512689E+002	1,3494873E-001
03/09/2025 14:46:20.7503	2,6502505E+002	1,3536038E-001
03/09/2025 14:46:24.1503	2,6504419E+002	1,3541435E-001
03/09/2025 14:46:27.5503	2,6514597E+002	1,3548051E-001
03/09/2025 14:46:30.9503	2,6510782E+002	1,3578615E-001
03/09/2025 14:46:34.3503	2,6503784E+002	1,3606413E-001
03/09/2025 14:46:37.7503	2,6510147E+002	1,3632461E-001
03/09/2025 14:46:41.1503	2,6507599E+002	1,3662975E-001
03/09/2025 14:46:44.5503	2,6506961E+002	1,3693187E-001
03/09/2025 14:46:47.9503	2,6512689E+002	1,3734248E-001
03/09/2025 14:46:51.3503	2,6504419E+002	1,3772430E-001
03/09/2025 14:46:54.7503	2,6508234E+002	1,3803470E-001
03/09/2025 14:46:58.1503	2,6510782E+002	1,3828766E-001
03/09/2025 14:47:01.5503	2,6506326E+002	1,3858190E-001
03/09/2025 14:47:04.9503	2,6506961E+002	1,3902169E-001
03/09/2025 14:47:08.3503	2,6505692E+002	1,3938880E-001
03/09/2025 14:47:11.7503	2,6513327E+002	1,3971096E-001
03/09/2025 14:47:15.1503	2,6506326E+002	1,4002742E-001
03/09/2025 14:47:18.5503	2,6503146E+002	1,4030069E-001
03/09/2025 14:47:21.9503	2,6509509E+002	1,4073178E-001
03/09/2025 14:47:25.3503	2,6516510E+002	1,4111130E-001
03/09/2025 14:47:28.7503	2,6506326E+002	1,4140563E-001
03/09/2025 14:47:32.1503	2,6511420E+002	1,4170338E-001
03/09/2025 14:47:35.5503	2,6509509E+002	1,4198571E-001
03/09/2025 14:47:38.9503	2,6506961E+002	1,4244610E-001
03/09/2025 14:47:42.3503	2,6506961E+002	1,4279923E-001
03/09/2025 14:47:45.7503	2,6506961E+002	1,4309749E-001
03/09/2025 14:47:49.1503	2,6509509E+002	1,4341530E-001
03/09/2025 14:47:52.5503	2,6508234E+002	1,4369282E-001
03/09/2025 14:47:55.9503	2,6508871E+002	1,4413843E-001
03/09/2025 14:47:59.3503	2,6506326E+002	1,4453322E-001
03/09/2025 14:48:02.6507	7,9778478E-002	3,2219101E-002
03/09/2025 14:48:06.0507	1,1796144E-001	1,5153832E-002
03/09/2025 14:48:09.4507	1,5614443E-001	8,1806406E-003
03/09/2025 14:48:12.8507	6,0686987E-002	5,4538362E-003
03/09/2025 14:48:16.2507	4,1595493E-002	4,6631801E-003
03/09/2025 14:48:19.6507	9,8869957E-002	4,5425459E-003
03/09/2025 14:48:23.0507	1,3068911E-001	4,6160417E-003
03/09/2025 14:48:26.4507	1,3705294E-001	4,7371727E-003
03/09/2025 14:48:29.8507	1,2432528E-001	4,8228544E-003
03/09/2025 14:48:33.2507	1,2432528E-001	4,8637660E-003
03/09/2025 14:48:36.6507	9,8869957E-002	4,8899711E-003
03/09/2025 14:48:40.0507	1,6250826E-001	4,8838211E-003
03/09/2025 14:48:43.4507	1,6250826E-001	4,8793135E-003
03/09/2025 14:48:46.8507	1,4978060E-001	4,8802304E-003
03/09/2025 14:48:50.2507	7,3414646E-002	4,8743859E-003
03/09/2025 14:48:53.6507	1,3705294E-001	4,8703747E-003
03/09/2025 14:48:57.0507	1,3068911E-001	4,8670135E-003
03/09/2025 14:49:00.4507	1,6250826E-001	4,8693819E-003
03/09/2025 14:49:03.8507	1,3068911E-001	4,8717498E-003
03/09/2025 14:49:07.2507	8,6142294E-002	4,8691146E-003
03/09/2025 14:49:10.6507	1,2432528E-001	4,8719794E-003
03/09/2025 14:49:14.0507	4,7959324E-002	4,8763342E-003
03/09/2025 14:49:17.4507	1,4978060E-001	4,8609395E-003
03/09/2025 14:49:20.8507	1,4341676E-001	4,8719794E-003
03/09/2025 14:49:24.2507	1,2432528E-001	4,8710243E-003
03/09/2025 14:49:27.6507	7,3414646E-002	4,8727049E-003
03/09/2025 14:49:31.0507	8,6142294E-002	4,8691905E-003
03/09/2025 14:49:34.4507	1,1796144E-001	4,8652943E-003
03/09/2025 14:49:37.8507	6,7050815E-002	4,8730108E-003
03/09/2025 14:49:41.2507	1,0523378E-001	4,8671281E-003
03/09/2025 14:49:44.6507	1,1159762E-001	4,8646070E-003
03/09/2025 14:49:48.0507	1,0523378E-001	4,8732399E-003
03/09/2025 14:49:51.4507	1,5614443E-001	4,8663258E-003
03/09/2025 14:49:54.8507	7,9778478E-002	4,8703747E-003
03/09/2025 14:49:58.2507	1,8796356E-001	4,8774420E-003
03/09/2025 14:50:01.5509	-2,6478278E+002	-9,1549218E-002
03/09/2025 14:50:04.9509	-2,6477005E+002	-1,1725475E-001
03/09/2025 14:50:08.3509	-2,6480188E+002	-1,2778448E-001
03/09/2025 14:50:11.7509	-2,6480823E+002	-1,3242643E-001
03/09/2025 14:50:15.1509	-2,6481461E+002	-1,3413508E-001
03/09/2025 14:50:18.5509	-2,6483371E+002	-1,3480179E-001
03/09/2025 14:50:21.9509	-2,6483371E+002	-1,3505264E-001
03/09/2025 14:50:25.3509	-2,6480188E+002	-1,3530266E-001
03/09/2025 14:50:28.7509	-2,6478278E+002	-1,3554065E-001
03/09/2025 14:50:32.1509	-2,6485278E+002	-1,3580078E-001
03/09/2025 14:50:35.5509	-2,6471277E+002	-1,3606481E-001
03/09/2025 14:50:38.9509	-2,6475095E+002	-1,3635243E-001
03/09/2025 14:50:42.3509	-2,6473187E+002	-1,3676208E-001
03/09/2025 14:50:45.7509	-2,6482095E+002	-1,3709489E-001
03/09/2025 14:50:49.1509	-2,6478278E+002	-1,3739799E-001
03/09/2025 14:50:52.5509	-2,6485278E+002	-1,3775378E-001
03/09/2025 14:50:55.9509	-2,6480823E+002	-1,3801503E-001
03/09/2025 14:50:59.3509	-2,6480188E+002	-1,3840362E-001
03/09/2025 14:51:02.7509	-2,6479550E+002	-1,3879251E-001
03/09/2025 14:51:06.1509	-2,6476367E+002	-1,3912591E-001
03/09/2025 14:51:09.5509	-2,6472549E+002	-1,3946180E-001
03/09/2025 14:51:12.9509	-2,6477643E+002	-1,3973413E-001
03/09/2025 14:51:16.3509	-2,6484641E+002	-1,4013924E-001
03/09/2025 14:51:19.7509	-2,6480823E+002	-1,4046057E-001
03/09/2025 14:51:23.1509	-2,6482095E+002	-1,4077713E-001
03/09/2025 14:51:26.5509	-2,6478278E+002	-1,4114133E-001
03/09/2025 14:51:29.9509	-2,6480823E+002	-1,4139776E-001
03/09/2025 14:51:33.3509	-2,6485278E+002	-1,4179835E-001
03/09/2025 14:51:36.7509	-2,6473187E+002	-1,4217630E-001
03/09/2025 14:51:40.1509	-2,6475732E+002	-1,4252400E-001
03/09/2025 14:51:43.5509	-2,6475095E+002	-1,4286150E-001
03/09/2025 14:51:46.9509	-2,6475732E+002	-1,4314413E-001
03/09/2025 14:51:50.3509	-2,6484006E+002	-1,4355427E-001
03/09/2025 14:51:53.7509	-2,6480823E+002	-1,4387998E-001
03/09/2025 14:51:57.1509	-2,6478915E+002	-1,4423068E-001
03/09/2025 14:52:00.5509	-2,6475095E+002	-1,4459571E-001
03/09/2025 14:52:03.8511	2,9160678E+002	1,0378299E-001
03/09/2025 14:52:07.2511	2,9162585E+002	1,3051383E-001
03/09/2025 14:52:10.6511	2,9156223E+002	1,4296481E-001
03/09/2025 14:52:14.0511	2,9154315E+002	1,4784551E-001
03/09/2025 14:52:17.4511	2,9156223E+002	1,4952251E-001
03/09/2025 14:52:20.8511	2,9161951E+002	1,5001161E-001
03/09/2025 14:52:24.2511	2,9155588E+002	1,5007086E-001
03/09/2025 14:52:27.6511	2,9165137E+002	1,5015085E-001
03/09/2025 14:52:31.0511	2,9155588E+002	1,5034789E-001
03/09/2025 14:52:34.4511	2,9160043E+002	1,5071495E-001
03/09/2025 14:52:37.8511	2,9157498E+002	1,5106376E-001
03/09/2025 14:52:41.2511	2,9158771E+002	1,5141213E-001
03/09/2025 14:52:44.6511	2,9161951E+002	1,5175436E-001
03/09/2025 14:52:48.0511	2,9161951E+002	1,5212642E-001
03/09/2025 14:52:51.4511	2,9160678E+002	1,5262792E-001
03/09/2025 14:52:54.8511	2,9158771E+002	1,5299623E-001
03/09/2025 14:52:58.2511	2,9164499E+002	1,5331921E-001
03/09/2025 14:53:01.6511	2,9159409E+002	1,5369429E-001
03/09/2025 14:53:05.0511	2,9154950E+002	1,5406689E-001
03/09/2025 14:53:08.4511	2,9158771E+002	1,5454301E-001
03/09/2025 14:53:11.8511	2,9154315E+002	1,5494303E-001
03/09/2025 14:53:15.2511	2,9154950E+002	1,5528092E-001
03/09/2025 14:53:18.6511	2,9160043E+002	1,5561467E-001
03/09/2025 14:53:22.0511	2,9149860E+002	1,5600933E-001
03/09/2025 14:53:25.4511	2,9159409E+002	1,5649834E-001
03/09/2025 14:53:28.8511	2,9160678E+002	1,5685941E-001
03/09/2025 14:53:32.2511	2,9155588E+002	1,5719944E-001
03/09/2025 14:53:35.6511	2,9158771E+002	1,5755662E-001
03/09/2025 14:53:39.0511	2,9156860E+002	1,5790084E-001
03/09/2025 14:53:42.4511	2,9159409E+002	1,5841520E-001
03/09/2025 14:53:45.8511	2,9160043E+002	1,5884060E-001
03/09/2025 14:53:49.2511	2,9163226E+002	1,5916429E-001
03/09/2025 14:53:52.6511	2,9156860E+002	1,5952638E-001
03/09/2025 14:53:56.0511	2,9156223E+002	1,5989947E-001
03/09/2025 14:53:59.4511	2,9159409E+002	1,6038141E-001
03/09/2025 14:54:02.7515	1,1159762E-001	3,4977838E-002
03/09/2025 14:54:06.1515	1,3068911E-001	1,6807457E-002
03/09/2025 14:54:09.5515	7,9778478E-002	9,3207471E-003
03/09/2025 14:54:12.9515	1,2432528E-001	6,4316704E-003
03/09/2025 14:54:16.3515	1,6250826E-001	5,6096525E-003
03/09/2025 14:54:19.7515	1,1159762E-001	5,4689250E-003
03/09/2025 14:54:23.1515	1,5614443E-001	5,5686259E-003
03/09/2025 14:54:26.5515	1,1796144E-001	5,6891460E-003
03/09/2025 14:54:29.9515	9,8869957E-002	5,7755918E-003
03/09/2025 14:54:33.3515	1,0523378E-001	5,8285366E-003
03/09/2025 14:54:36.7515	9,8869957E-002	5,8377422E-003
03/09/2025 14:54:40.1515	6,0686987E-002	5,8448096E-003
03/09/2025 14:54:43.5515	1,3705294E-001	5,8341897E-003
03/09/2025 14:54:46.9515	1,3068911E-001	5,8298348E-003
03/09/2025 14:54:50.3515	9,2506140E-002	5,8326237E-003
03/09/2025 14:54:53.7515	9,2506140E-002	5,8284597E-003
03/09/2025 14:54:57.1515	1,8796356E-001	5,8271615E-003
03/09/2025 14:55:00.5515	1,3705294E-001	5,8323564E-003
03/09/2025 14:55:03.9515	1,4341676E-001	5,8253654E-003
03/09/2025 14:55:07.3515	1,2432528E-001	5,8316309E-003
03/09/2025 14:55:10.7515	1,8796356E-001	5,8305226E-003
03/09/2025 14:55:14.1515	1,3068911E-001	5,8163893E-003
03/09/2025 14:55:17.5515	8,6142294E-002	5,8288421E-003
03/09/2025 14:55:20.9515	7,9778478E-002	5,8277342E-003
03/09/2025 14:55:24.3515	1,5614443E-001	5,8247931E-003
03/09/2025 14:55:27.7515	1,4341676E-001	5,8233035E-003
03/09/2025 14:55:31.1515	6,7050815E-002	5,8234558E-003
03/09/2025 14:55:34.5515	1,1159762E-001	5,8358707E-003
03/09/2025 14:55:37.9515	1,3705294E-001	5,8302176E-003
03/09/2025 14:55:41.3515	7,9778478E-002	5,8318977E-003
03/09/2025 14:55:44.7515	1,7523590E-001	5,8272756E-003
03/09/2025 14:55:48.1515	1,3068911E-001	5,8231121E-003
03/09/2025 14:55:51.5515	8,6142294E-002	5,8334260E-003
03/09/2025 14:55:54.9515	2,1341887E-001	5,8324710E-003
03/09/2025 14:55:58.3515	9,8869957E-002	5,8281161E-003
03/09/2025 14:56:01.6517	-2,9131995E+002	-1,0177217E-001
03/09/2025 14:56:05.0517	-2,9136447E+002	-1,2922078E-001
03/09/2025 14:56:08.4517	-2,9131360E+002	-1,4058766E-001
03/09/2025 14:56:11.8517	-2,9135812E+002	-1,4574255E-001
03/09/2025 14:56:15.2517	-2,9139630E+002	-1,4766017E-001
03/09/2025 14:56:18.6517	-2,9131360E+002	-1,4833091E-001
03/09/2025 14:56:22.0517	-2,9131360E+002	-1,4870860E-001
03/09/2025 14:56:25.4517	-2,9138995E+002	-1,4889447E-001
03/09/2025 14:56:28.8517	-2,9137723E+002	-1,4921030E-001
03/09/2025 14:56:32.2517	-2,9132629E+002	-1,4948992E-001
03/09/2025 14:56:35.6517	-2,9129449E+002	-1,4979327E-001
03/09/2025 14:56:39.0517	-2,9138358E+002	-1,5014872E-001
03/09/2025 14:56:42.4517	-2,9128177E+002	-1,5049125E-001
03/09/2025 14:56:45.8517	-2,9141541E+002	-1,5097250E-001
03/09/2025 14:56:49.2517	-2,9130722E+002	-1,5131454E-001
03/09/2025 14:56:52.6517	-2,9126904E+002	-1,5165290E-001
03/09/2025 14:56:56.0517	-2,9133267E+002	-1,5206745E-001
03/09/2025 14:56:59.4517	-2,9134540E+002	-1,5236847E-001
03/09/2025 14:57:02.8517	-2,9131995E+002	-1,5284042E-001
03/09/2025 14:57:06.2517	-2,9133267E+002	-1,5322815E-001
03/09/2025 14:57:09.6517	-2,9135812E+002	-1,5356770E-001
03/09/2025 14:57:13.0517	-2,9135178E+002	-1,5396471E-001
03/09/2025 14:57:16.4517	-2,9130084E+002	-1,5432574E-001
03/09/2025 14:57:19.8517	-2,9138358E+002	-1,5478234E-001
03/09/2025 14:57:23.2517	-2,9139630E+002	-1,5514256E-001
03/09/2025 14:57:26.6517	-2,9130722E+002	-1,5548544E-001
03/09/2025 14:57:30.0517	-2,9129449E+002	-1,5588970E-001
03/09/2025 14:57:33.4517	-2,9138358E+002	-1,5621150E-001
03/09/2025 14:57:36.8517	-2,9133902E+002	-1,5670562E-001
03/09/2025 14:57:40.2517	-2,9133267E+002	-1,5711290E-001
03/09/2025 14:57:43.6517	-2,9135812E+002	-1,5743718E-001
03/09/2025 14:57:47.0517	-2,9133267E+002	-1,5783326E-001
03/09/2025 14:57:50.4517	-2,9133267E+002	-1,5817054E-001
03/09/2025 14:57:53.8517	-2,9132629E+002	-1,5863928E-001
03/09/2025 14:57:57.2517	-2,9135178E+002	-1,5903331E-001
03/09/2025 14:58:00.6517	-2,9132629E+002	-1,5941511E-001
03/09/2025 14:58:03.9519	3,1823309E+002	1,1472998E-001
03/09/2025 14:58:07.3519	3,1813760E+002	1,4360587E-001
03/09/2025 14:58:10.7519	3,1818216E+002	1,5718745E-001
03/09/2025 14:58:14.1519	3,1815671E+002	1,6248682E-001
03/09/2025 14:58:17.5519	3,1819489E+002	1,6425733E-001
03/09/2025 14:58:20.9519	3,1816940E+002	1,6484244E-001
03/09/2025 14:58:24.3519	3,1818851E+002	1,6497445E-001
03/09/2025 14:58:27.7519	3,1813760E+002	1,6501188E-001
03/09/2025 14:58:31.1519	3,1813126E+002	1,6525939E-001
03/09/2025 14:58:34.5519	3,1816302E+002	1,6562836E-001
03/09/2025 14:58:37.9519	3,1819489E+002	1,6608293E-001
03/09/2025 14:58:41.3519	3,1816302E+002	1,6652688E-001
03/09/2025 14:58:44.7519	3,1814395E+002	1,6688888E-001
03/09/2025 14:58:48.1519	3,1818216E+002	1,6732216E-001
03/09/2025 14:58:51.5519	3,1812488E+002	1,6777116E-001
03/09/2025 14:58:54.9519	3,1825217E+002	1,6828308E-001
03/09/2025 14:58:58.3519	3,1814395E+002	1,6870442E-001
03/09/2025 14:59:01.7519	3,1809943E+002	1,6906078E-001
03/09/2025 14:59:05.1519	3,1813126E+002	1,6949736E-001
03/09/2025 14:59:08.5519	3,1816302E+002	1,6993369E-001
03/09/2025 14:59:11.9519	3,1827124E+002	1,7044231E-001
03/09/2025 14:59:15.3519	3,1808667E+002	1,7089696E-001
03/09/2025 14:59:18.7519	3,1811853E+002	1,7125699E-001
03/09/2025 14:59:22.1519	3,1815671E+002	1,7166111E-001
03/09/2025 14:59:25.5519	3,1817581E+002	1,7213501E-001
03/09/2025 14:59:28.9519	3,1811215E+002	1,7265724E-001
03/09/2025 14:59:32.3519	3,1815671E+002	1,7308439E-001
03/09/2025 14:59:35.7519	3,1813760E+002	1,7349558E-001
03/09/2025 14:59:39.1519	3,1820761E+002	1,7391123E-001
03/09/2025 14:59:42.5519	3,1814395E+002	1,7434436E-001
03/09/2025 14:59:45.9519	3,1814395E+002	1,7490816E-001
03/09/2025 14:59:49.3519	3,1815033E+002	1,7533591E-001
03/09/2025 14:59:52.7519	3,1812488E+002	1,7570412E-001
03/09/2025 14:59:56.1519	3,1814395E+002	1,7613387E-001
03/09/2025 14:59:59.5519	3,1813760E+002	1,7660601E-001
03/09/2025 15:00:02.8523	1,9432738E-001	3,7664268E-002
03/09/2025 15:00:06.2523	5,4323155E-002	1,8406875E-002
03/09/2025 15:00:09.6523	1,5614443E-001	1,0457530E-002
03/09/2025 15:00:13.0523	9,2506140E-002	7,4132099E-003
03/09/2025 15:00:16.4523	6,7050815E-002	6,5283538E-003
03/09/2025 15:00:19.8523	1,4978060E-001	6,4039757E-003
03/09/2025 15:00:23.2523	1,6887209E-001	6,5093301E-003
03/09/2025 15:00:26.6523	9,2506140E-002	6,6524264E-003
03/09/2025 15:00:30.0523	7,9778478E-002	6,7507522E-003
03/09/2025 15:00:33.4523	1,6250826E-001	6,8021691E-003
03/09/2025 15:00:36.8523	1,3705294E-001	6,8240571E-003
03/09/2025 15:00:40.2523	1,2432528E-001	6,8216887E-003
03/09/2025 15:00:43.6523	2,8867837E-002	6,8086623E-003
03/09/2025 15:00:47.0523	1,0523378E-001	6,8048043E-003
03/09/2025 15:00:50.4523	8,6142294E-002	6,8055303E-003
03/09/2025 15:00:53.8523	1,4978060E-001	6,7989598E-003
03/09/2025 15:00:57.2523	1,1796144E-001	6,8033147E-003
03/09/2025 15:01:00.6523	1,6250826E-001	6,7991130E-003
03/09/2025 15:01:04.0523	1,6887209E-001	6,8029710E-003
03/09/2025 15:01:07.4523	1,1796144E-001	6,8080137E-003
03/09/2025 15:01:10.8523	1,0523378E-001	6,7982720E-003
03/09/2025 15:01:14.2523	1,1159762E-001	6,7995712E-003
03/09/2025 15:01:17.6523	9,8869957E-002	6,8010609E-003
03/09/2025 15:01:21.0523	1,3705294E-001	6,7997244E-003
03/09/2025 15:01:24.4523	1,3705294E-001	6,8050721E-003
03/09/2025 15:01:27.8523	1,3705294E-001	6,7957891E-003
03/09/2025 15:01:31.2523	9,2506140E-002	6,7988453E-003
03/09/2025 15:01:34.6523	2,8867837E-002	6,8070586E-003
03/09/2025 15:01:38.0523	1,4341676E-001	6,7968206E-003
03/09/2025 15:01:41.4523	1,1159762E-001	6,8009845E-003
03/09/2025 15:01:44.8523	1,4341676E-001	6,8036965E-003
03/09/2025 15:01:48.2523	1,5614443E-001	6,7974702E-003
03/09/2025 15:01:51.6523	1,2432528E-001	6,8037729E-003
03/09/2025 15:01:55.0523	1,9432738E-001	6,8010609E-003
03/09/2025 15:01:58.4523	1,8796356E-001	6,8029328E-003
03/09/2025 15:02:01.7525	-3,1790161E+002	-1,1213019E-001
03/09/2025 15:02:05.1525	-3,1786346E+002	-1,4122146E-001
03/09/2025 15:02:08.5525	-3,1786346E+002	-1,5364972E-001
03/09/2025 15:02:11.9525	-3,1786346E+002	-1,5913492E-001
03/09/2025 15:02:15.3525	-3,1787619E+002	-1,6131623E-001
03/09/2025 15:02:18.7525	-3,1792075E+002	-1,6205922E-001
03/09/2025 15:02:22.1525	-3,1787619E+002	-1,6238005E-001
03/09/2025 15:02:25.5525	-3,1792709E+002	-1,6264431E-001
03/09/2025 15:02:28.9525	-3,1785074E+002	-1,6295691E-001
03/09/2025 15:02:32.3525	-3,1792709E+002	-1,6337699E-001
03/09/2025 15:02:35.7525	-3,1790802E+002	-1,6365230E-001
03/09/2025 15:02:39.1525	-3,1789529E+002	-1,6401118E-001
03/09/2025 15:02:42.5525	-3,1783163E+002	-1,6448249E-001
03/09/2025 15:02:45.9525	-3,1784433E+002	-1,6488576E-001
03/09/2025 15:02:49.3525	-3,1785074E+002	-1,6541424E-001
03/09/2025 15:02:52.7525	-3,1787619E+002	-1,6576558E-001
03/09/2025 15:02:56.1525	-3,1781894E+002	-1,6610888E-001
03/09/2025 15:02:59.5525	-3,1793982E+002	-1,6654550E-001
03/09/2025 15:03:02.9525	-3,1791440E+002	-1,6700654E-001
03/09/2025 15:03:06.3525	-3,1783801E+002	-1,6752523E-001
03/09/2025 15:03:09.7525	-3,1788254E+002	-1,6786931E-001
03/09/2025 15:03:13.1525	-3,1782526E+002	-1,6824549E-001
03/09/2025 15:03:16.5525	-3,1786984E+002	-1,6871916E-001
03/09/2025 15:03:19.9525	-3,1797168E+002	-1,6913788E-001
03/09/2025 15:03:23.3525	-3,1786346E+002	-1,6967940E-001
03/09/2025 15:03:26.7525	-3,1786346E+002	-1,7005944E-001
03/09/2025 15:03:30.1525	-3,1784433E+002	-1,7043620E-001
03/09/2025 15:03:33.5525	-3,1787619E+002	-1,7088501E-001
03/09/2025 15:03:36.9525	-3,1790161E+002	-1,7135830E-001
03/09/2025 15:03:40.3525	-3,1790802E+002	-1,7190494E-001
03/09/2025 15:03:43.7525	-3,1791440E+002	-1,7225142E-001
03/09/2025 15:03:47.1525	-3,1781894E+002	-1,7261222E-001
03/09/2025 15:03:50.5525	-3,1787619E+002	-1,7307281E-001
03/09/2025 15:03:53.9525	-3,1783163E+002	-1,7348094E-001
03/09/2025 15:03:57.3525	-3,1791440E+002	-1,7404836E-001
03/09/2025 15:04:00.7525	-3,1785074E+002	-1,7446949E-001
03/09/2025 15:04:00.8527	-3,1795255E+002	-1,7463964E-001