File: data/phase_2a/Sergey/1/8.3/01 eis/SN50_C5D1E2_mr2_0,1MFeCN6_in_1M_KCl_3306mL_symmetric_balanced_4_point_PEIS_10mHz_200kHz_10mV_C16.txt
time/s	freq/Hz	Re(Z)/Ohm	-Im(Z)/Ohm
26/08/2025 22:40:07.1445	1,9999814E+005	3,0607265E-001	-9,8948248E-002
26/08/2025 22:40:07.5785	1,5885727E+005	3,1891754E-001	-7,5083032E-002
26/08/2025 22:40:08.0135	1,2618765E+005	3,2640973E-001	-5,8963463E-002
26/08/2025 22:40:08.3075	1,0022640E+005	3,2970163E-001	-4,5573007E-002
26/08/2025 22:40:10.0015	7,9609563E+004	3,3113483E-001	-3,5706148E-002
26/08/2025 22:40:11.6955	6,3233004E+004	3,3185714E-001	-2,8021974E-002
26/08/2025 22:40:12.9705	5,0224539E+004	3,3227593E-001	-2,2172576E-002
26/08/2025 22:40:13.6845	3,9897566E+004	3,3273947E-001	-1,7000049E-002
26/08/2025 22:40:14.2585	3,1686090E+004	3,3300611E-001	-1,2934172E-002
26/08/2025 22:40:14.6925	2,5172580E+004	3,3350259E-001	-9,5712198E-003
26/08/2025 22:40:15.1265	1,9995176E+004	3,3380055E-001	-6,5672267E-003
26/08/2025 22:40:15.5605	1,5884798E+004	3,3417681E-001	-4,5628822E-003
26/08/2025 22:40:15.9945	1,2618766E+004	3,3484095E-001	-2,9663467E-003
26/08/2025 22:40:16.4285	1,0020785E+004	3,3517131E-001	-1,5928544E-003
26/08/2025 22:40:16.9197	7,9597607E+003	3,3554196E-001	-6,2048633E-004
26/08/2025 22:40:17.3143	6,3238188E+003	3,3622548E-001	1,1175015E-004
26/08/2025 22:40:18.0057	5,0216069E+003	3,3653775E-001	1,0464274E-003
26/08/2025 22:40:18.4749	3,9861731E+003	3,3713561E-001	1,5323634E-003
26/08/2025 22:40:18.9420	3,1669595E+003	3,3736199E-001	1,8246187E-003
26/08/2025 22:40:19.4077	2,5158047E+003	3,3778727E-001	2,2735104E-003
26/08/2025 22:40:19.8759	1,9980818E+003	3,3824632E-001	2,6131941E-003
26/08/2025 22:40:20.3429	1,5884750E+003	3,3881679E-001	2,7985377E-003
26/08/2025 22:40:20.8087	1,2604036E+003	3,3928725E-001	3,1218717E-003
26/08/2025 22:40:21.2755	1,0016024E+003	3,3983168E-001	3,2879780E-003
26/08/2025 22:40:21.7427	7,9525409E+002	3,4042478E-001	3,4554352E-003
26/08/2025 22:40:22.2092	6,3181964E+002	3,4111643E-001	3,7718492E-003
26/08/2025 22:40:22.6759	5,0208865E+002	3,4164333E-001	4,0724259E-003
26/08/2025 22:40:23.1435	3,9859698E+002	3,4206912E-001	4,2457813E-003
26/08/2025 22:40:23.6087	3,1672299E+002	3,4263453E-001	4,5511397E-003
26/08/2025 22:40:24.0734	2,5169135E+002	3,4328902E-001	4,6835053E-003
26/08/2025 22:40:24.5420	1,9980818E+002	3,4422311E-001	4,9681775E-003
26/08/2025 22:40:25.0115	1,5862943E+002	3,4481847E-001	5,4299799E-003
26/08/2025 22:40:25.4762	1,2600809E+002	3,4563234E-001	5,6951968E-003
26/08/2025 22:40:25.9435	1,0016024E+002	3,4643710E-001	5,7596089E-003
26/08/2025 22:40:26.4140	7,9516548E+001	3,4724361E-001	6,2006167E-003
26/08/2025 22:40:26.8926	6,3160763E+001	3,4823996E-001	6,4497981E-003
26/08/2025 22:40:27.3589	5,0208866E+001	3,4907547E-001	6,8289046E-003
26/08/2025 22:40:27.8285	3,9859695E+001	3,5020915E-001	7,1861995E-003
26/08/2025 22:40:28.2742	3,1672298E+001	3,5082272E-001	7,5019966E-003
26/08/2025 22:40:28.7397	2,5136747E+001	3,5225010E-001	8,0043282E-003
26/08/2025 22:40:29.2080	1,9980818E+001	3,5338357E-001	8,2460018E-003
26/08/2025 22:40:29.6519	1,5857577E+001	3,5448301E-001	8,7729078E-003
26/08/2025 22:40:30.1989	1,2600809E+001	3,5593390E-001	9,3004378E-003
26/08/2025 22:40:30.6644	1,0016025E+001	3,5696465E-001	9,7271260E-003
26/08/2025 22:40:31.5112	7,9557004E+000	3,5861409E-001	1,0127862E-002
26/08/2025 22:40:31.8912	6,3105812E+000	3,5983172E-001	1,0836438E-002
26/08/2025 22:40:32.3602	5,0144420E+000	3,6135209E-001	1,1441695E-002
26/08/2025 22:40:32.9337	3,9859698E+000	3,6300877E-001	1,1592136E-002
26/08/2025 22:40:33.6417	3,1655185E+000	3,6450177E-001	1,2898878E-002
26/08/2025 22:40:34.5197	2,5136747E+000	3,6548737E-001	1,3356308E-002
26/08/2025 22:40:35.6127	1,9970603E+000	3,6688527E-001	1,4481787E-002
26/08/2025 22:40:37.6601	1,5846856E+000	3,6869347E-001	1,5552817E-002
26/08/2025 22:40:39.3681	1,2596742E+000	3,7105834E-001	1,7112667E-002
26/08/2025 22:40:41.5072	1,0000639E+000	3,7183172E-001	1,9151477E-002
26/08/2025 22:40:44.1892	7,9443753E-001	3,7399632E-001	2,1946050E-002
26/08/2025 22:40:47.5546	6,3126212E-001	3,7647432E-001	2,5679244E-002
26/08/2025 22:40:51.7843	5,0118679E-001	3,7878200E-001	2,9406019E-002
26/08/2025 22:40:57.0914	3,9867833E-001	3,8192132E-001	3,3399254E-002
26/08/2025 22:41:03.7728	3,1619310E-001	3,8651374E-001	3,8384981E-002
26/08/2025 22:41:12.1745	2,5117347E-001	3,9136028E-001	4,4468876E-002
26/08/2025 22:41:22.7264	1,9980818E-001	3,9625669E-001	5,1042691E-002
26/08/2025 22:41:36.0213	1,5846856E-001	4,0241534E-001	5,7449643E-002
26/08/2025 22:41:52.7464	1,2590654E-001	4,1056463E-001	6,4688377E-002
26/08/2025 22:42:13.7668	1,0013975E-001	4,1996461E-001	7,3594399E-002
26/08/2025 22:42:40.2614	7,9421178E-002	4,2994520E-001	8,3420694E-002
26/08/2025 22:43:13.6012	6,3101739E-002	4,4166240E-001	9,3185522E-002
26/08/2025 22:43:55.5399	5,0154075E-002	4,5555294E-001	1,0164552E-001
26/08/2025 22:44:48.3739	3,9804459E-002	4,7301042E-001	1,1262363E-001
26/08/2025 22:45:54.9340	3,1592205E-002	4,9293336E-001	1,2511879E-001
26/08/2025 22:47:18.5524	2,5144994E-002	5,1526260E-001	1,3424744E-001
26/08/2025 22:49:03.9413	1,9949391E-002	5,3994197E-001	1,3978431E-001
26/08/2025 22:51:16.4903	1,5860692E-002	5,6723332E-001	1,4327273E-001
26/08/2025 22:54:03.6407	1,2576789E-002	5,9725839E-001	1,4329796E-001
26/08/2025 22:57:33.6615	1,0009170E-002	6,2585980E-001	1,3647403E-001
26/08/2025 22:57:34.4975	1,9999814E+005	3,0539227E-001	-9,8718658E-002
26/08/2025 22:57:34.9315	1,5885727E+005	3,1799045E-001	-7,4340798E-002
26/08/2025 22:57:35.3655	1,2618765E+005	3,2525405E-001	-5,8058955E-002
26/08/2025 22:57:35.6595	1,0022640E+005	3,2904094E-001	-4,5471739E-002
26/08/2025 22:57:37.3535	7,9609563E+004	3,3033040E-001	-3,5578646E-002
26/08/2025 22:57:39.0475	6,3233004E+004	3,3099771E-001	-2,7890714E-002
26/08/2025 22:57:40.6015	5,0224539E+004	3,3131868E-001	-2,2006428E-002
26/08/2025 22:57:41.3155	3,9897566E+004	3,3177850E-001	-1,6915096E-002
26/08/2025 22:57:41.8895	3,1686090E+004	3,3195910E-001	-1,2702374E-002
26/08/2025 22:57:42.3235	2,5172580E+004	3,3263922E-001	-9,4825095E-003
26/08/2025 22:57:42.7575	1,9995176E+004	3,3270493E-001	-6,9304248E-003
26/08/2025 22:57:43.1915	1,5884798E+004	3,3334044E-001	-4,6874103E-003
26/08/2025 22:57:43.6255	1,2618766E+004	3,3374581E-001	-3,0449461E-003
26/08/2025 22:57:44.0595	1,0020785E+004	3,3423167E-001	-1,7291844E-003
26/08/2025 22:57:44.5508	7,9597607E+003	3,3452979E-001	-4,6044891E-004
26/08/2025 22:57:44.9454	6,3238188E+003	3,3517408E-001	2,5709605E-004
26/08/2025 22:57:45.6367	5,0216069E+003	3,3539715E-001	8,6493988E-004
26/08/2025 22:57:46.1050	3,9861731E+003	3,3608890E-001	1,4570149E-003
26/08/2025 22:57:46.5720	3,1669595E+003	3,3653250E-001	1,7771886E-003
26/08/2025 22:57:47.0377	2,5158047E+003	3,3684576E-001	2,2477829E-003
26/08/2025 22:57:47.5060	1,9980818E+003	3,3741826E-001	2,5887841E-003
26/08/2025 22:57:47.9730	1,5884750E+003	3,3797714E-001	2,7423596E-003
26/08/2025 22:57:48.4387	1,2604036E+003	3,3830133E-001	3,0129079E-003
26/08/2025 22:57:48.9055	1,0016024E+003	3,3890954E-001	3,2169535E-003
26/08/2025 22:57:49.3728	7,9525409E+002	3,3933201E-001	3,4191597E-003
26/08/2025 22:57:49.8402	6,3181964E+002	3,3991480E-001	3,8193259E-003
26/08/2025 22:57:50.3070	5,0208865E+002	3,4054738E-001	4,0399791E-003
26/08/2025 22:57:50.7745	3,9859698E+002	3,4120998E-001	4,2813611E-003
26/08/2025 22:57:51.2397	3,1672299E+002	3,4184092E-001	4,3988540E-003
26/08/2025 22:57:51.7045	2,5169135E+002	3,4227407E-001	4,8081754E-003
26/08/2025 22:57:52.1730	1,9980818E+002	3,4311837E-001	5,0208825E-003
26/08/2025 22:57:52.6425	1,5862943E+002	3,4384224E-001	5,2495962E-003
26/08/2025 22:57:53.1072	1,2600809E+002	3,4463498E-001	5,4491940E-003
26/08/2025 22:57:53.5745	1,0016024E+002	3,4540740E-001	5,7941251E-003
26/08/2025 22:57:54.0450	7,9516548E+001	3,4621358E-001	6,1677950E-003
26/08/2025 22:57:54.5227	6,3160763E+001	3,4732288E-001	6,4048036E-003
26/08/2025 22:57:54.9900	5,0208866E+001	3,4795269E-001	6,9169160E-003
26/08/2025 22:57:55.4575	3,9859695E+001	3,4894505E-001	7,1164272E-003
26/08/2025 22:57:55.9032	3,1672298E+001	3,5006735E-001	7,4528512E-003
26/08/2025 22:57:56.3687	2,5136747E+001	3,5104340E-001	7,9363538E-003
26/08/2025 22:57:56.8370	1,9980818E+001	3,5209501E-001	8,3061913E-003
26/08/2025 22:57:57.2810	1,5857577E+001	3,5340679E-001	8,6968150E-003
26/08/2025 22:57:57.8279	1,2600809E+001	3,5469535E-001	9,2266407E-003
26/08/2025 22:57:58.2935	1,0016025E+001	3,5603586E-001	9,6568586E-003
26/08/2025 22:57:58.8682	7,9557004E+000	3,5737196E-001	1,0309713E-002
26/08/2025 22:57:59.2482	6,3105812E+000	3,5883841E-001	1,0647726E-002
26/08/2025 22:57:59.7172	5,0144420E+000	3,6028332E-001	1,1106293E-002
26/08/2025 22:58:00.2907	3,9859698E+000	3,6171982E-001	1,1835219E-002
26/08/2025 22:58:00.9988	3,1655185E+000	3,6314520E-001	1,2434502E-002
26/08/2025 22:58:01.8767	2,5136747E+000	3,6489716E-001	1,3510354E-002
26/08/2025 22:58:02.9698	1,9970603E+000	3,6623466E-001	1,3989985E-002
26/08/2025 22:58:05.0171	1,5846856E+000	3,6758399E-001	1,5582364E-002
26/08/2025 22:58:06.7240	1,2596742E+000	3,6873052E-001	1,8246839E-002
26/08/2025 22:58:08.8623	1,0000639E+000	3,7109840E-001	1,9655267E-002
26/08/2025 22:58:11.5441	7,9443753E-001	3,7287608E-001	2,2274366E-002
26/08/2025 22:58:14.9098	6,3126212E-001	3,7473089E-001	2,5711229E-002
26/08/2025 22:58:19.1391	5,0118679E-001	3,7739703E-001	2,9070286E-002
26/08/2025 22:58:24.4468	3,9867833E-001	3,8098329E-001	3,3197626E-002
26/08/2025 22:58:31.1272	3,1619310E-001	3,8520184E-001	3,8595885E-002
26/08/2025 22:58:39.5288	2,5117347E-001	3,8935819E-001	4,4564698E-002
26/08/2025 22:58:50.0798	1,9980818E-001	3,9443457E-001	5,0292194E-002
26/08/2025 22:59:03.3737	1,5846856E-001	4,0138531E-001	5,6821838E-002
26/08/2025 22:59:20.0986	1,2590654E-001	4,0958437E-001	6,4864933E-002
26/08/2025 22:59:41.1190	1,0013975E-001	4,1809690E-001	7,3956318E-002
26/08/2025 23:00:07.6136	7,9421178E-002	4,2777777E-001	8,2830861E-002
26/08/2025 23:00:40.9535	6,3101739E-002	4,3998423E-001	9,2239097E-002
26/08/2025 23:01:22.8921	5,0154075E-002	4,5511135E-001	1,0136495E-001
26/08/2025 23:02:15.7261	3,9804459E-002	4,7164661E-001	1,1338899E-001
26/08/2025 23:03:22.2873	3,1592205E-002	4,9046713E-001	1,2493966E-001
26/08/2025 23:04:45.9067	2,5144994E-002	5,1316100E-001	1,3289629E-001
26/08/2025 23:06:31.2957	1,9949391E-002	5,3867429E-001	1,3849071E-001
26/08/2025 23:08:43.8446	1,5860692E-002	5,6598371E-001	1,4288980E-001
26/08/2025 23:11:30.9949	1,2576789E-002	5,9509450E-001	1,4298581E-001
26/08/2025 23:15:01.0156	1,0009170E-002	6,2332588E-001	1,3589932E-001
26/08/2025 23:15:01.8516	1,9999814E+005	3,0514207E-001	-9,3013495E-002
26/08/2025 23:15:02.2856	1,5885727E+005	3,1650048E-001	-7,1865402E-002
26/08/2025 23:15:02.7196	1,2618765E+005	3,2307950E-001	-5,5876222E-002
26/08/2025 23:15:03.0136	1,0022640E+005	3,2700977E-001	-4,4381768E-002
26/08/2025 23:15:04.7076	7,9609563E+004	3,2847154E-001	-3,5220224E-002
26/08/2025 23:15:06.4016	6,3233004E+004	3,2910690E-001	-2,7600367E-002
26/08/2025 23:15:08.0956	5,0224539E+004	3,2941401E-001	-2,1817451E-002
26/08/2025 23:15:08.8096	3,9897566E+004	3,2992133E-001	-1,6939316E-002
26/08/2025 23:15:09.2446	3,1686090E+004	3,3023626E-001	-1,2665051E-002
26/08/2025 23:15:09.6786	2,5172580E+004	3,3074287E-001	-9,4442191E-003
26/08/2025 23:15:10.1126	1,9995176E+004	3,3086932E-001	-6,8463925E-003
26/08/2025 23:15:10.5466	1,5884798E+004	3,3132797E-001	-4,6650171E-003
26/08/2025 23:15:10.9806	1,2618766E+004	3,3187303E-001	-3,0800074E-003
26/08/2025 23:15:11.4146	1,0020785E+004	3,3229160E-001	-1,7343309E-003
26/08/2025 23:15:11.9059	7,9597607E+003	3,3270484E-001	-5,6414335E-004
26/08/2025 23:15:12.4874	6,3238188E+003	3,3314928E-001	1,6243102E-004
26/08/2025 23:15:12.9568	5,0216069E+003	3,3332455E-001	8,7869045E-004
26/08/2025 23:15:13.4250	3,9861731E+003	3,3396155E-001	1,3315763E-003
26/08/2025 23:15:14.1150	3,1669595E+003	3,3439580E-001	1,7619248E-003
26/08/2025 23:15:14.5808	2,5158047E+003	3,3498874E-001	2,3148577E-003
26/08/2025 23:15:15.0500	1,9980818E+003	3,3538583E-001	2,5389935E-003
26/08/2025 23:15:15.5170	1,5884750E+003	3,3589157E-001	2,7811185E-003
26/08/2025 23:15:15.9828	1,2604036E+003	3,3605555E-001	3,0781410E-003
26/08/2025 23:15:16.4505	1,0016024E+003	3,3673877E-001	3,1974674E-003
26/08/2025 23:15:16.9178	7,9525409E+002	3,3721548E-001	3,5080812E-003
26/08/2025 23:15:17.3853	6,3181964E+002	3,3788800E-001	3,8181653E-003
26/08/2025 23:15:17.8520	5,0208865E+002	3,3851561E-001	4,1728765E-003
26/08/2025 23:15:18.3196	3,9859698E+002	3,3903739E-001	4,2516105E-003
26/08/2025 23:15:18.7848	3,1672299E+002	3,3966947E-001	4,3759434E-003
26/08/2025 23:15:19.2495	2,5169135E+002	3,4037635E-001	4,6745413E-003
26/08/2025 23:15:19.7181	1,9980818E+002	3,4111550E-001	5,0023324E-003
26/08/2025 23:15:20.1876	1,5862943E+002	3,4184587E-001	5,1858714E-003
26/08/2025 23:15:20.6523	1,2600809E+002	3,4242967E-001	5,5544218E-003
26/08/2025 23:15:21.1195	1,0016024E+002	3,4330535E-001	5,6604804E-003
26/08/2025 23:15:21.5901	7,9516548E+001	3,4410179E-001	6,0155173E-003
26/08/2025 23:15:22.0687	6,3160763E+001	3,4508944E-001	6,4810556E-003
26/08/2025 23:15:22.5350	5,0208866E+001	3,4589598E-001	6,7462167E-003
26/08/2025 23:15:23.0025	3,9859695E+001	3,4684813E-001	7,0245187E-003
26/08/2025 23:15:23.4483	3,1672298E+001	3,4790471E-001	7,3377038E-003
26/08/2025 23:15:23.9138	2,5136747E+001	3,4895775E-001	7,7154180E-003
26/08/2025 23:15:24.3821	1,9980818E+001	3,5010397E-001	8,2658408E-003
26/08/2025 23:15:24.8260	1,5857577E+001	3,5133672E-001	8,7751979E-003
26/08/2025 23:15:25.3730	1,2600809E+001	3,5255364E-001	9,1444757E-003
26/08/2025 23:15:25.8385	1,0016025E+001	3,5363325E-001	9,4992919E-003
26/08/2025 23:15:26.4143	7,9557004E+000	3,5515052E-001	1,0029129E-002
26/08/2025 23:15:26.7943	6,3105812E+000	3,5670167E-001	1,0776629E-002
26/08/2025 23:15:27.2633	5,0144420E+000	3,5776758E-001	1,1049979E-002
26/08/2025 23:15:27.8368	3,9859698E+000	3,5962906E-001	1,1626614E-002
26/08/2025 23:15:28.5448	3,1655185E+000	3,6090407E-001	1,2297192E-002
26/08/2025 23:15:29.4228	2,5136747E+000	3,6249566E-001	1,3509433E-002
26/08/2025 23:15:30.5158	1,9970603E+000	3,6374965E-001	1,4368569E-002
26/08/2025 23:15:32.5631	1,5846856E+000	3,6509520E-001	1,5509039E-002
26/08/2025 23:15:34.2711	1,2596742E+000	3,6706924E-001	1,6425923E-002
26/08/2025 23:15:36.4092	1,0000639E+000	3,6808404E-001	1,8657712E-002
26/08/2025 23:15:39.0902	7,9443753E-001	3,7055424E-001	2,1845598E-002
26/08/2025 23:15:42.4560	6,3126212E-001	3,7279099E-001	2,5532436E-002
26/08/2025 23:15:46.6853	5,0118679E-001	3,7486410E-001	2,8951235E-002
26/08/2025 23:15:51.9923	3,9867833E-001	3,7843341E-001	3,2923378E-002
26/08/2025 23:15:58.6738	3,1619310E-001	3,8273361E-001	3,8244087E-002
26/08/2025 23:16:07.0744	2,5117347E-001	3,8710234E-001	4,4192534E-002
26/08/2025 23:16:17.6265	1,9980818E-001	3,9193010E-001	5,0134283E-002
26/08/2025 23:16:30.9214	1,5846856E-001	3,9858967E-001	5,6458272E-002
26/08/2025 23:16:47.6463	1,2590654E-001	4,0678090E-001	6,4274944E-002
26/08/2025 23:17:08.6668	1,0013975E-001	4,1536564E-001	7,3412448E-002
26/08/2025 23:17:35.1625	7,9421178E-002	4,2482623E-001	8,2585678E-002
26/08/2025 23:18:08.5012	6,3101739E-002	4,3670171E-001	9,1922604E-002
26/08/2025 23:18:50.4398	5,0154075E-002	4,5141515E-001	1,0070838E-001
26/08/2025 23:19:43.2737	3,9804459E-002	4,6811625E-001	1,1247967E-001
26/08/2025 23:20:49.8358	3,1592205E-002	4,8691946E-001	1,2440026E-001
26/08/2025 23:22:13.4551	2,5144994E-002	5,0875086E-001	1,3248792E-001
26/08/2025 23:23:58.8431	1,9949391E-002	5,3374404E-001	1,3778296E-001
26/08/2025 23:26:11.3910	1,5860692E-002	5,6073970E-001	1,4216253E-001
26/08/2025 23:28:58.5404	1,2576789E-002	5,8978951E-001	1,4254083E-001
26/08/2025 23:32:28.5612	1,0009170E-002	6,1802441E-001	1,3592343E-001
26/08/2025 23:32:29.3976	1,9999814E+005	3,0103227E-001	-9,3837850E-002
26/08/2025 23:32:29.8316	1,5885727E+005	3,1339207E-001	-7,2375238E-002
26/08/2025 23:32:30.2656	1,2618765E+005	3,2013825E-001	-5,6374274E-002
26/08/2025 23:32:30.5596	1,0022640E+005	3,2446441E-001	-4,4927891E-002
26/08/2025 23:32:32.2536	7,9609563E+004	3,2588685E-001	-3,5501059E-002
26/08/2025 23:32:33.9476	6,3233004E+004	3,2628942E-001	-2,7968159E-002
26/08/2025 23:32:35.6416	5,0224539E+004	3,2664081E-001	-2,2009494E-002
26/08/2025 23:32:36.3556	3,9897566E+004	3,2695132E-001	-1,7013825E-002
26/08/2025 23:32:36.7896	3,1686090E+004	3,2737651E-001	-1,3024015E-002
26/08/2025 23:32:37.2236	2,5172580E+004	3,2777664E-001	-9,6864644E-003
26/08/2025 23:32:37.6576	1,9995176E+004	3,2816237E-001	-7,0578866E-003
26/08/2025 23:32:38.0916	1,5884798E+004	3,2838053E-001	-4,6986346E-003
26/08/2025 23:32:38.5256	1,2618766E+004	3,2884437E-001	-3,0483929E-003
26/08/2025 23:32:38.9596	1,0020785E+004	3,2946044E-001	-1,6981568E-003
26/08/2025 23:32:39.4509	7,9597607E+003	3,2996649E-001	-7,0375466E-004
26/08/2025 23:32:40.0325	6,3238188E+003	3,3036104E-001	1,6812590E-004
26/08/2025 23:32:40.5019	5,0216069E+003	3,3065242E-001	6,0733536E-004
26/08/2025 23:32:40.9701	3,9861731E+003	3,3129701E-001	1,2626685E-003
26/08/2025 23:32:41.6601	3,1669595E+003	3,3166125E-001	1,6071661E-003
26/08/2025 23:32:42.1258	2,5158047E+003	3,3209485E-001	2,2023865E-003
26/08/2025 23:32:42.5941	1,9980818E+003	3,3240470E-001	2,5179561E-003
26/08/2025 23:32:43.0611	1,5884750E+003	3,3289340E-001	2,6670191E-003
26/08/2025 23:32:43.5268	1,2604036E+003	3,3352572E-001	2,9342968E-003
26/08/2025 23:32:43.9936	1,0016024E+003	3,3373544E-001	3,2607305E-003
26/08/2025 23:32:44.4608	7,9525409E+002	3,3438021E-001	3,3848621E-003
26/08/2025 23:32:44.9273	6,3181964E+002	3,3501258E-001	3,7388012E-003
26/08/2025 23:32:45.3941	5,0208865E+002	3,3565050E-001	3,9606378E-003
26/08/2025 23:32:45.8616	3,9859698E+002	3,3610716E-001	3,9345883E-003
26/08/2025 23:32:46.3268	3,1672299E+002	3,3686516E-001	4,4431854E-003
26/08/2025 23:32:46.7915	2,5169135E+002	3,3724153E-001	4,6524075E-003
26/08/2025 23:32:47.2601	1,9980818E+002	3,3804557E-001	4,7004395E-003
26/08/2025 23:32:47.7297	1,5862943E+002	3,3877137E-001	5,2436246E-003
26/08/2025 23:32:48.1943	1,2600809E+002	3,3949482E-001	5,3520566E-003
26/08/2025 23:32:48.6616	1,0016024E+002	3,4023818E-001	5,5094827E-003
26/08/2025 23:32:49.1321	7,9516548E+001	3,4107122E-001	5,9316885E-003
26/08/2025 23:32:49.6107	6,3160763E+001	3,4163272E-001	6,2914616E-003
26/08/2025 23:32:50.0771	5,0208866E+001	3,4288120E-001	6,5985713E-003
26/08/2025 23:32:50.5446	3,9859695E+001	3,4378049E-001	6,8895495E-003
26/08/2025 23:32:50.9904	3,1672298E+001	3,4479621E-001	7,3647271E-003
26/08/2025 23:32:51.4558	2,5136747E+001	3,4591296E-001	7,6679480E-003
26/08/2025 23:32:51.9241	1,9980818E+001	3,4701699E-001	7,9477513E-003
26/08/2025 23:32:52.3681	1,5857577E+001	3,4813109E-001	8,5766632E-003
26/08/2025 23:32:52.9150	1,2600809E+001	3,4942457E-001	9,0422183E-003
26/08/2025 23:32:53.3806	1,0016025E+001	3,5068575E-001	9,5206471E-003
26/08/2025 23:32:53.9553	7,9557004E+000	3,5195312E-001	1,0069184E-002
26/08/2025 23:32:54.3353	6,3105812E+000	3,5329738E-001	1,0281974E-002
26/08/2025 23:32:54.8043	5,0144420E+000	3,5489887E-001	1,1016260E-002
26/08/2025 23:32:55.3778	3,9859698E+000	3,5604209E-001	1,1477477E-002
26/08/2025 23:32:56.0859	3,1655185E+000	3,5754374E-001	1,2035691E-002
26/08/2025 23:32:56.9638	2,5136747E+000	3,5935786E-001	1,3010768E-002
26/08/2025 23:32:58.0568	1,9970603E+000	3,6048442E-001	1,3840102E-002
26/08/2025 23:32:59.4233	1,5846856E+000	3,6190486E-001	1,5394779E-002
26/08/2025 23:33:01.9752	1,2596742E+000	3,6275184E-001	1,6430434E-002
26/08/2025 23:33:04.1133	1,0000639E+000	3,6469230E-001	1,9397657E-002
26/08/2025 23:33:06.7942	7,9443753E-001	3,6668739E-001	2,1699982E-002
26/08/2025 23:33:10.1599	6,3126212E-001	3,6906004E-001	2,4696419E-002
26/08/2025 23:33:14.3892	5,0118679E-001	3,7208951E-001	2,8717274E-002
26/08/2025 23:33:19.6967	3,9867833E-001	3,7485859E-001	3,3275489E-002
26/08/2025 23:33:26.3772	3,1619310E-001	3,7851530E-001	3,7737045E-002
26/08/2025 23:33:34.7789	2,5117347E-001	3,8345763E-001	4,2950220E-002
26/08/2025 23:33:45.3300	1,9980818E-001	3,8925546E-001	4,9575802E-002
26/08/2025 23:33:58.6228	1,5846856E-001	3,9520872E-001	5,7024043E-002
26/08/2025 23:34:15.3488	1,2590654E-001	4,0201786E-001	6,4183436E-002
26/08/2025 23:34:36.3692	1,0013975E-001	4,1100928E-001	7,1779586E-002
26/08/2025 23:35:02.8649	7,9421178E-002	4,2217869E-001	8,1046253E-002
26/08/2025 23:35:36.2047	6,3101739E-002	4,3423861E-001	9,1425896E-002
26/08/2025 23:36:18.1444	5,0154075E-002	4,4687021E-001	1,0161190E-001
26/08/2025 23:37:10.9795	3,9804459E-002	4,6231782E-001	1,1138935E-001
26/08/2025 23:38:17.5406	3,1592205E-002	4,8271060E-001	1,2198769E-001
26/08/2025 23:39:41.1600	2,5144994E-002	5,0582016E-001	1,3151273E-001
26/08/2025 23:41:26.5480	1,9949391E-002	5,2976841E-001	1,3828623E-001
26/08/2025 23:43:39.0960	1,5860692E-002	5,5561352E-001	1,4203791E-001
26/08/2025 23:46:26.2464	1,2576789E-002	5,8521092E-001	1,4123699E-001
26/08/2025 23:49:56.2672	1,0009170E-002	6,1407983E-001	1,3550608E-001
26/08/2025 23:49:57.1027	1,9999814E+005	3,0027714E-001	-8,9181937E-002
26/08/2025 23:49:57.5367	1,5885727E+005	3,1251809E-001	-6,9195598E-002
26/08/2025 23:49:57.9707	1,2618765E+005	3,1797972E-001	-5,4573171E-002
26/08/2025 23:49:58.2647	1,0022640E+005	3,2150608E-001	-4,3932803E-002
26/08/2025 23:49:59.9587	7,9609563E+004	3,2294095E-001	-3,5360035E-002
26/08/2025 23:50:01.6537	6,3233004E+004	3,2343838E-001	-2,7842527E-002
26/08/2025 23:50:03.3477	5,0224539E+004	3,2375714E-001	-2,1826064E-002
26/08/2025 23:50:04.0617	3,9897566E+004	3,2446170E-001	-1,6941972E-002
26/08/2025 23:50:04.4957	3,1686090E+004	3,2459286E-001	-1,2799712E-002
26/08/2025 23:50:04.9297	2,5172580E+004	3,2472968E-001	-9,6103689E-003
26/08/2025 23:50:05.3637	1,9995176E+004	3,2509482E-001	-7,0250626E-003
26/08/2025 23:50:05.7977	1,5884798E+004	3,2558855E-001	-4,7289520E-003
26/08/2025 23:50:06.2317	1,2618766E+004	3,2584682E-001	-2,9846986E-003
26/08/2025 23:50:06.6657	1,0020785E+004	3,2651380E-001	-1,7270508E-003
26/08/2025 23:50:07.1569	7,9597607E+003	3,2682493E-001	-5,2861864E-004
26/08/2025 23:50:07.7385	6,3238188E+003	3,2731050E-001	1,8975651E-004
26/08/2025 23:50:08.2079	5,0216069E+003	3,2754910E-001	6,7303277E-004
26/08/2025 23:50:08.6771	3,9861731E+003	3,2808703E-001	1,1891586E-003
26/08/2025 23:50:09.3672	3,1669595E+003	3,2842344E-001	1,8583572E-003
26/08/2025 23:50:09.8329	2,5158047E+003	3,2899654E-001	2,0945526E-003
26/08/2025 23:50:10.3012	1,9980818E+003	3,2949156E-001	2,4708281E-003
26/08/2025 23:50:10.7681	1,5884750E+003	3,2973009E-001	2,7650932E-003
26/08/2025 23:50:11.2339	1,2604036E+003	3,3047986E-001	2,9781037E-003
26/08/2025 23:50:11.7006	1,0016024E+003	3,3091238E-001	3,2265452E-003
26/08/2025 23:50:12.1689	7,9525409E+002	3,3134091E-001	3,4538656E-003
26/08/2025 23:50:12.6354	6,3181964E+002	3,3198106E-001	3,7099561E-003
26/08/2025 23:50:13.1021	5,0208865E+002	3,3246949E-001	3,8599663E-003
26/08/2025 23:50:13.5697	3,9859698E+002	3,3321556E-001	4,2529497E-003
26/08/2025 23:50:14.0348	3,1672299E+002	3,3373892E-001	4,3616346E-003
26/08/2025 23:50:14.4996	2,5169135E+002	3,3422405E-001	4,4929036E-003
26/08/2025 23:50:14.9681	1,9980818E+002	3,3483577E-001	4,8728734E-003
26/08/2025 23:50:15.4377	1,5862943E+002	3,3577919E-001	4,9892571E-003
26/08/2025 23:50:15.9023	1,2600809E+002	3,3645105E-001	5,1665683E-003
26/08/2025 23:50:16.3696	1,0016024E+002	3,3720398E-001	5,6843283E-003
26/08/2025 23:50:16.8402	7,9516548E+001	3,3804467E-001	5,7215118E-003
26/08/2025 23:50:17.3188	6,3160763E+001	3,3887431E-001	6,0105217E-003
26/08/2025 23:50:17.7841	5,0208866E+001	3,3968669E-001	6,3598887E-003
26/08/2025 23:50:18.2517	3,9859695E+001	3,4057298E-001	7,0109759E-003
26/08/2025 23:50:18.6974	3,1672298E+001	3,4157759E-001	7,3271226E-003
26/08/2025 23:50:19.1629	2,5136747E+001	3,4273985E-001	7,5679463E-003
26/08/2025 23:50:19.6311	1,9980818E+001	3,4372970E-001	8,1103742E-003
26/08/2025 23:50:20.0751	1,5857577E+001	3,4502217E-001	8,5012084E-003
26/08/2025 23:50:20.6220	1,2600809E+001	3,4636945E-001	8,9069456E-003
26/08/2025 23:50:21.0886	1,0016025E+001	3,4733829E-001	9,4187241E-003
26/08/2025 23:50:21.6634	7,9557004E+000	3,4886262E-001	9,7761163E-003
26/08/2025 23:50:22.0434	6,3105812E+000	3,5007504E-001	1,0306614E-002
26/08/2025 23:50:22.5124	5,0144420E+000	3,5121372E-001	1,0792674E-002
26/08/2025 23:50:23.0859	3,9859698E+000	3,5311079E-001	1,1811404E-002
26/08/2025 23:50:23.7939	3,1655185E+000	3,5408613E-001	1,1930615E-002
26/08/2025 23:50:24.6719	2,5136747E+000	3,5601982E-001	1,3089656E-002
26/08/2025 23:50:25.7649	1,9970603E+000	3,5718021E-001	1,3929656E-002
26/08/2025 23:50:27.1313	1,5846856E+000	3,5874102E-001	1,5048119E-002
26/08/2025 23:50:29.6831	1,2596742E+000	3,5921884E-001	1,7129423E-002
26/08/2025 23:50:31.8213	1,0000639E+000	3,6167300E-001	1,9143911E-002
26/08/2025 23:50:34.5035	7,9443753E-001	3,6377752E-001	2,1591043E-002
26/08/2025 23:50:37.8668	6,3126212E-001	3,6566144E-001	2,4948645E-002
26/08/2025 23:50:42.0981	5,0118679E-001	3,6813760E-001	2,8277988E-002
26/08/2025 23:50:47.4057	3,9867833E-001	3,7164092E-001	3,2268997E-002
26/08/2025 23:50:54.0862	3,1619310E-001	3,7568381E-001	3,7595332E-002
26/08/2025 23:51:02.4879	2,5117347E-001	3,7964180E-001	4,3386474E-002
26/08/2025 23:51:13.0388	1,9980818E-001	3,8464224E-001	4,9010567E-002
26/08/2025 23:51:26.3337	1,5846856E-001	3,9142859E-001	5,5463251E-002
26/08/2025 23:51:43.0588	1,2590654E-001	3,9924872E-001	6,3490972E-002
26/08/2025 23:52:04.0792	1,0013975E-001	4,0743345E-001	7,2332643E-002
26/08/2025 23:52:30.5739	7,9421178E-002	4,1676825E-001	8,1080087E-002