File: data/phase_2a/Sergey/2/20.7/01 eis/SN50_C6aD1E1_hr 0,1MFeCN6_in_1M_KCl_3306mL_symmetric_balanced_4_point_PEIS_10mHz_200kHz_10mV_C16.txt
time/s	freq/Hz	Re(Z)/Ohm	-Im(Z)/Ohm
31/08/2025 08:44:40.9845	1,9999814E+005	2,8225845E-001	-3,7310056E-002
31/08/2025 08:44:41.4195	1,5885727E+005	2,9515594E-001	-2,5490552E-002
31/08/2025 08:44:41.8545	1,2618765E+005	3,0246863E-001	-1,9317759E-002
31/08/2025 08:44:42.1485	1,0022640E+005	3,0609685E-001	-1,4210165E-002
31/08/2025 08:44:43.8435	7,9609563E+004	3,0737108E-001	-1,0585163E-002
31/08/2025 08:44:45.5385	6,3233004E+004	3,0806860E-001	-8,4112696E-003
31/08/2025 08:44:46.6725	5,0224539E+004	3,0844665E-001	-6,4577954E-003
31/08/2025 08:44:47.3875	3,9897566E+004	3,0873194E-001	-5,0189877E-003
31/08/2025 08:44:47.8215	3,1686090E+004	3,0885276E-001	-3,7263951E-003
31/08/2025 08:44:48.2565	2,5172580E+004	3,0923858E-001	-2,5832667E-003
31/08/2025 08:44:48.6905	1,9995176E+004	3,0949521E-001	-1,5267613E-003
31/08/2025 08:44:49.1245	1,5884798E+004	3,0969688E-001	-8,0613187E-004
31/08/2025 08:44:49.5585	1,2618766E+004	3,0979413E-001	-1,2872084E-004
31/08/2025 08:44:49.9935	1,0020785E+004	3,1001252E-001	4,8217943E-004
31/08/2025 08:44:50.4847	7,9597607E+003	3,1035087E-001	7,5391575E-004
31/08/2025 08:44:51.0663	6,3238188E+003	3,1047440E-001	1,2188737E-003
31/08/2025 08:44:51.5357	5,0216069E+003	3,1087875E-001	1,5247382E-003
31/08/2025 08:44:52.2269	3,9861731E+003	3,1116566E-001	1,8533784E-003
31/08/2025 08:44:52.6939	3,1669595E+003	3,1153214E-001	2,0462885E-003
31/08/2025 08:44:53.1597	2,5158047E+003	3,1192091E-001	2,1466704E-003
31/08/2025 08:44:53.6290	1,9980818E+003	3,1226808E-001	2,2486513E-003
31/08/2025 08:44:54.0950	1,5884750E+003	3,1273183E-001	2,6660995E-003
31/08/2025 08:44:54.5607	1,2604036E+003	3,1301543E-001	2,6400248E-003
31/08/2025 08:44:55.0274	1,0016024E+003	3,1332728E-001	3,0592498E-003
31/08/2025 08:44:55.4947	7,9525409E+002	3,1382251E-001	3,2084084E-003
31/08/2025 08:44:55.9612	6,3181964E+002	3,1423688E-001	3,3283290E-003
31/08/2025 08:44:56.4279	5,0208865E+002	3,1487632E-001	3,5593417E-003
31/08/2025 08:44:56.8955	3,9859698E+002	3,1522414E-001	3,8558559E-003
31/08/2025 08:44:57.3607	3,1672299E+002	3,1592062E-001	4,0269066E-003
31/08/2025 08:44:57.8254	2,5169135E+002	3,1652904E-001	4,2268885E-003
31/08/2025 08:44:58.2940	1,9980818E+002	3,1709921E-001	4,3837223E-003
31/08/2025 08:44:58.7635	1,5862943E+002	3,1780985E-001	4,7500692E-003
31/08/2025 08:44:59.2291	1,2600809E+002	3,1831211E-001	4,9965177E-003
31/08/2025 08:44:59.6964	1,0016024E+002	3,1932777E-001	5,3931656E-003
31/08/2025 08:45:00.1680	7,9516548E+001	3,1992140E-001	5,7650656E-003
31/08/2025 08:45:00.6456	6,3160763E+001	3,2070905E-001	5,8237752E-003
31/08/2025 08:45:01.1119	5,0208866E+001	3,2161075E-001	6,2477938E-003
31/08/2025 08:45:01.5795	3,9859695E+001	3,2246348E-001	6,5469840E-003
31/08/2025 08:45:02.0252	3,1672298E+001	3,2351816E-001	6,9281189E-003
31/08/2025 08:45:02.4907	2,5136747E+001	3,2474861E-001	7,3448471E-003
31/08/2025 08:45:02.9579	1,9980818E+001	3,2557309E-001	7,7402443E-003
31/08/2025 08:45:03.4019	1,5857577E+001	3,2681027E-001	7,9377005E-003
31/08/2025 08:45:03.9489	1,2600809E+001	3,2791188E-001	8,4910346E-003
31/08/2025 08:45:04.4145	1,0016025E+001	3,2946947E-001	8,8492315E-003
31/08/2025 08:45:04.9882	7,9557004E+000	3,3053496E-001	8,8290740E-003
31/08/2025 08:45:05.3682	6,3105812E+000	3,3159614E-001	9,3174912E-003
31/08/2025 08:45:05.8372	5,0144420E+000	3,3309361E-001	9,4189094E-003
31/08/2025 08:45:06.4107	3,9859698E+000	3,3423981E-001	9,7547472E-003
31/08/2025 08:45:07.1187	3,1655185E+000	3,3493301E-001	1,0244101E-002
31/08/2025 08:45:07.9967	2,5136747E+000	3,3642951E-001	1,0909436E-002
31/08/2025 08:45:09.0897	1,9970603E+000	3,3713087E-001	1,1802237E-002
31/08/2025 08:45:10.4561	1,5846856E+000	3,3847114E-001	1,3032313E-002
31/08/2025 08:45:13.0079	1,2596742E+000	3,3953473E-001	1,4840735E-002
31/08/2025 08:45:15.1461	1,0000639E+000	3,4096321E-001	1,6751595E-002
31/08/2025 08:45:17.8281	7,9443753E-001	3,4285894E-001	1,9428320E-002
31/08/2025 08:45:21.1938	6,3126212E-001	3,4478781E-001	2,2753753E-002
31/08/2025 08:45:25.4230	5,0118679E-001	3,4686321E-001	2,6105434E-002
31/08/2025 08:45:30.7307	3,9867833E-001	3,5009846E-001	2,9793506E-002
31/08/2025 08:45:37.4110	3,1619310E-001	3,5420617E-001	3,4688614E-002
31/08/2025 08:45:45.8127	2,5117347E-001	3,5857058E-001	4,0342998E-002
31/08/2025 08:45:56.3637	1,9980818E-001	3,6350593E-001	4,5670688E-002
31/08/2025 08:46:09.6585	1,5846856E-001	3,7031743E-001	5,1194292E-002
31/08/2025 08:46:26.3835	1,2590654E-001	3,7858510E-001	5,7799395E-002
31/08/2025 08:46:47.4039	1,0013975E-001	3,8768339E-001	6,5830879E-002
31/08/2025 08:47:13.8976	7,9421178E-002	3,9893535E-001	7,3190354E-002
31/08/2025 08:47:47.2384	6,3101739E-002	4,1271526E-001	7,8564219E-002
31/08/2025 08:48:29.1771	5,0154075E-002	4,2793453E-001	8,1985041E-002
31/08/2025 08:49:22.0122	3,9804459E-002	4,4509497E-001	8,5422717E-002
31/08/2025 08:50:28.5732	3,1592205E-002	4,6334147E-001	8,5241757E-002
31/08/2025 08:51:52.1927	2,5144994E-002	4,8153260E-001	8,0231108E-002
31/08/2025 08:53:37.5817	1,9949391E-002	4,9785006E-001	7,1733057E-002
31/08/2025 08:55:50.1307	1,5860692E-002	5,0975353E-001	6,2047374E-002
31/08/2025 08:58:37.2810	1,2576789E-002	5,1771253E-001	5,2446239E-002
31/08/2025 09:02:07.3008	1,0009170E-002	5,2235657E-001	4,4886857E-002
31/08/2025 09:02:08.1365	1,9999814E+005	2,8151646E-001	-3,6846220E-002
31/08/2025 09:02:08.5705	1,5885727E+005	2,9524368E-001	-2,5777776E-002
31/08/2025 09:02:09.0045	1,2618765E+005	3,0220160E-001	-1,8928505E-002
31/08/2025 09:02:09.2985	1,0022640E+005	3,0557925E-001	-1,4087550E-002
31/08/2025 09:02:10.9935	7,9609563E+004	3,0705857E-001	-1,0478434E-002
31/08/2025 09:02:12.6875	6,3233004E+004	3,0755401E-001	-7,9946751E-003
31/08/2025 09:02:14.1015	5,0224539E+004	3,0800760E-001	-6,2872167E-003
31/08/2025 09:02:14.8155	3,9897566E+004	3,0838314E-001	-4,7854432E-003
31/08/2025 09:02:15.2495	3,1686090E+004	3,0861822E-001	-3,7083414E-003
31/08/2025 09:02:15.6835	2,5172580E+004	3,0883744E-001	-2,4102277E-003
31/08/2025 09:02:16.1175	1,9995176E+004	3,0897072E-001	-1,4967150E-003
31/08/2025 09:02:16.5515	1,5884798E+004	3,0905461E-001	-7,2556204E-004
31/08/2025 09:02:16.9855	1,2618766E+004	3,0933088E-001	-2,0008670E-004
31/08/2025 09:02:17.4195	1,0020785E+004	3,0961490E-001	2,8147711E-004
31/08/2025 09:02:17.9108	7,9597607E+003	3,0997199E-001	8,2341162E-004
31/08/2025 09:02:18.4923	6,3238188E+003	3,1002429E-001	1,0814812E-003
31/08/2025 09:02:18.9618	5,0216069E+003	3,1050804E-001	1,6091035E-003
31/08/2025 09:02:19.6520	3,9861731E+003	3,1080326E-001	1,6618596E-003
31/08/2025 09:02:20.1190	3,1669595E+003	3,1096393E-001	1,9339327E-003
31/08/2025 09:02:20.5847	2,5158047E+003	3,1139165E-001	2,1534339E-003
31/08/2025 09:02:21.0520	1,9980818E+003	3,1186673E-001	2,4588811E-003
31/08/2025 09:02:21.5190	1,5884750E+003	3,1222513E-001	2,7134442E-003
31/08/2025 09:02:21.9848	1,2604036E+003	3,1241664E-001	2,6371253E-003
31/08/2025 09:02:22.4515	1,0016024E+003	3,1302488E-001	2,9372897E-003
31/08/2025 09:02:22.9187	7,9525409E+002	3,1334552E-001	3,2010151E-003
31/08/2025 09:02:23.3862	6,3181964E+002	3,1388471E-001	3,4064788E-003
31/08/2025 09:02:23.8530	5,0208865E+002	3,1434155E-001	3,3804248E-003
31/08/2025 09:02:24.3205	3,9859698E+002	3,1488791E-001	3,8758784E-003
31/08/2025 09:02:24.7857	3,1672299E+002	3,1535679E-001	3,8664129E-003
31/08/2025 09:02:25.2505	2,5169135E+002	3,1608829E-001	4,2186654E-003
31/08/2025 09:02:25.7190	1,9980818E+002	3,1648317E-001	4,5720893E-003
31/08/2025 09:02:26.1886	1,5862943E+002	3,1715491E-001	4,7263266E-003
31/08/2025 09:02:26.6532	1,2600809E+002	3,1794065E-001	5,0813151E-003
31/08/2025 09:02:27.1205	1,0016024E+002	3,1871879E-001	5,2212272E-003
31/08/2025 09:02:27.5910	7,9516548E+001	3,1954804E-001	5,5803675E-003
31/08/2025 09:02:28.0707	6,3160763E+001	3,2044485E-001	5,9179007E-003
31/08/2025 09:02:28.5380	5,0208866E+001	3,2110155E-001	6,1836457E-003
31/08/2025 09:02:29.0055	3,9859695E+001	3,2194385E-001	6,5217395E-003
31/08/2025 09:02:29.4513	3,1672298E+001	3,2300612E-001	6,9073685E-003
31/08/2025 09:02:29.9167	2,5136747E+001	3,2406387E-001	7,2053485E-003
31/08/2025 09:02:30.3850	1,9980818E+001	3,2504022E-001	7,6317764E-003
31/08/2025 09:02:30.8290	1,5857577E+001	3,2632783E-001	8,0596600E-003
31/08/2025 09:02:31.3759	1,2600809E+001	3,2744643E-001	8,3150463E-003
31/08/2025 09:02:31.8415	1,0016025E+001	3,2879952E-001	8,6183120E-003
31/08/2025 09:02:32.4162	7,9557004E+000	3,3007810E-001	8,8867825E-003
31/08/2025 09:02:32.7962	6,3105812E+000	3,3136779E-001	9,1403201E-003
31/08/2025 09:02:33.2652	5,0144420E+000	3,3262461E-001	9,4359377E-003
31/08/2025 09:02:33.8387	3,9859698E+000	3,3383551E-001	9,9118995E-003
31/08/2025 09:02:34.5468	3,1655185E+000	3,3470505E-001	1,0068277E-002
31/08/2025 09:02:35.4248	2,5136747E+000	3,3581242E-001	1,0975805E-002
31/08/2025 09:02:36.5178	1,9970603E+000	3,3668453E-001	1,1863085E-002
31/08/2025 09:02:37.8842	1,5846856E+000	3,3800247E-001	1,2993908E-002
31/08/2025 09:02:40.4361	1,2596742E+000	3,3907697E-001	1,4846904E-002
31/08/2025 09:02:42.5742	1,0000639E+000	3,4045297E-001	1,6756348E-002
31/08/2025 09:02:45.2562	7,9443753E-001	3,4227934E-001	1,9317724E-002
31/08/2025 09:02:48.6220	6,3126212E-001	3,4432498E-001	2,2747315E-002
31/08/2025 09:02:52.8512	5,0118679E-001	3,4639508E-001	2,6138844E-002
31/08/2025 09:02:58.1588	3,9867833E-001	3,4955457E-001	2,9819457E-002
31/08/2025 09:03:04.8399	3,1619310E-001	3,5378256E-001	3,4679573E-002
31/08/2025 09:03:13.2415	2,5117347E-001	3,5810769E-001	4,0347040E-002
31/08/2025 09:03:23.7936	1,9980818E-001	3,6300457E-001	4,5796279E-002
31/08/2025 09:03:37.0884	1,5846856E-001	3,6976540E-001	5,1242836E-002
31/08/2025 09:03:53.8135	1,2590654E-001	3,7798223E-001	5,7786204E-002
31/08/2025 09:04:14.8339	1,0013975E-001	3,8717780E-001	6,5798193E-002
31/08/2025 09:04:41.3285	7,9421178E-002	3,9842644E-001	7,3173463E-002
31/08/2025 09:05:14.6683	6,3101739E-002	4,1223800E-001	7,8522190E-002
31/08/2025 09:05:56.6069	5,0154075E-002	4,2748350E-001	8,1973784E-002
31/08/2025 09:06:49.4409	3,9804459E-002	4,4470477E-001	8,5481763E-002
31/08/2025 09:07:56.0009	3,1592205E-002	4,6303472E-001	8,5479535E-002
31/08/2025 09:09:19.6193	2,5144994E-002	4,8106349E-001	8,0612361E-002
31/08/2025 09:11:05.0083	1,9949391E-002	4,9717623E-001	7,2076365E-002
31/08/2025 09:13:17.5574	1,5860692E-002	5,0894231E-001	6,2183984E-002
31/08/2025 09:16:04.7078	1,2576789E-002	5,1663625E-001	5,2488808E-002
31/08/2025 09:19:34.7285	1,0009170E-002	5,2116758E-001	4,4386610E-002
31/08/2025 09:19:35.5646	1,9999814E+005	2,8036222E-001	-3,6705256E-002
31/08/2025 09:19:35.9986	1,5885727E+005	2,9399177E-001	-2,4567137E-002
31/08/2025 09:19:36.4326	1,2618765E+005	3,0138072E-001	-1,8759141E-002
31/08/2025 09:19:36.7266	1,0022640E+005	3,0501124E-001	-1,3594698E-002
31/08/2025 09:19:38.4206	7,9609563E+004	3,0654305E-001	-1,0263474E-002
31/08/2025 09:19:40.1146	6,3233004E+004	3,0716681E-001	-7,9767760E-003
31/08/2025 09:19:41.6686	5,0224539E+004	3,0753291E-001	-6,4449930E-003
31/08/2025 09:19:42.3826	3,9897566E+004	3,0782595E-001	-4,7308537E-003
31/08/2025 09:19:42.8166	3,1686090E+004	3,0814037E-001	-3,4655696E-003
31/08/2025 09:19:43.2506	2,5172580E+004	3,0815515E-001	-2,4224170E-003
31/08/2025 09:19:43.6856	1,9995176E+004	3,0841145E-001	-1,3162384E-003
31/08/2025 09:19:44.1196	1,5884798E+004	3,0867547E-001	-7,8151666E-004
31/08/2025 09:19:44.5536	1,2618766E+004	3,0892104E-001	-2,2558384E-005
31/08/2025 09:19:44.9886	1,0020785E+004	3,0891511E-001	3,6290675E-004
31/08/2025 09:19:45.4798	7,9597607E+003	3,0908069E-001	8,7091437E-004
31/08/2025 09:19:46.0614	6,3238188E+003	3,0955571E-001	1,2216961E-003
31/08/2025 09:19:46.5308	5,0216069E+003	3,0973598E-001	1,4584023E-003
31/08/2025 09:19:47.2210	3,9861731E+003	3,1009817E-001	1,7190377E-003
31/08/2025 09:19:47.6880	3,1669595E+003	3,1055093E-001	2,0178338E-003
31/08/2025 09:19:48.1538	2,5158047E+003	3,1077254E-001	2,0888974E-003
31/08/2025 09:19:48.6220	1,9980818E+003	3,1118587E-001	2,4025443E-003
31/08/2025 09:19:49.0890	1,5884750E+003	3,1143671E-001	2,6671705E-003
31/08/2025 09:19:49.5548	1,2604036E+003	3,1191579E-001	2,8289380E-003
31/08/2025 09:19:50.0215	1,0016024E+003	3,1245860E-001	2,9134343E-003
31/08/2025 09:19:50.4888	7,9525409E+002	3,1279233E-001	3,1601770E-003
31/08/2025 09:19:50.9553	6,3181964E+002	3,1328017E-001	3,5135942E-003
31/08/2025 09:19:51.4220	5,0208865E+002	3,1377548E-001	3,5434819E-003
31/08/2025 09:19:51.8895	3,9859698E+002	3,1416607E-001	3,7968368E-003
31/08/2025 09:19:52.3548	3,1672299E+002	3,1480941E-001	4,0241717E-003
31/08/2025 09:19:52.8195	2,5169135E+002	3,1538203E-001	4,4120639E-003
31/08/2025 09:19:53.2880	1,9980818E+002	3,1607485E-001	4,5455196E-003
31/08/2025 09:19:53.7576	1,5862943E+002	3,1677851E-001	4,7239112E-003
31/08/2025 09:19:54.2222	1,2600809E+002	3,1751248E-001	4,9527339E-003
31/08/2025 09:19:54.6895	1,0016024E+002	3,1799877E-001	5,2490663E-003
31/08/2025 09:19:55.1611	7,9516548E+001	3,1890628E-001	5,4244664E-003
31/08/2025 09:19:55.6397	6,3160763E+001	3,1958720E-001	5,9010140E-003
31/08/2025 09:19:56.1060	5,0208866E+001	3,2064253E-001	6,2645883E-003
31/08/2025 09:19:56.5735	3,9859695E+001	3,2155281E-001	6,5023238E-003
31/08/2025 09:19:57.0193	3,1672298E+001	3,2230857E-001	6,9689043E-003
31/08/2025 09:19:57.4848	2,5136747E+001	3,2327694E-001	7,4413372E-003
31/08/2025 09:19:57.9521	1,9980818E+001	3,2464090E-001	7,6535884E-003
31/08/2025 09:19:58.3960	1,5857577E+001	3,2562712E-001	7,7884644E-003
31/08/2025 09:19:58.9430	1,2600809E+001	3,2709855E-001	8,3159534E-003
31/08/2025 09:19:59.4085	1,0016025E+001	3,2801437E-001	8,6322399E-003
31/08/2025 09:19:59.9833	7,9557004E+000	3,2962725E-001	8,8667898E-003
31/08/2025 09:20:00.3633	6,3105812E+000	3,3056965E-001	9,1867298E-003
31/08/2025 09:20:00.8323	5,0144420E+000	3,3194587E-001	9,2343716E-003
31/08/2025 09:20:01.4058	3,9859698E+000	3,3307549E-001	9,7079035E-003
31/08/2025 09:20:02.1138	3,1655185E+000	3,3431259E-001	1,0378227E-002
31/08/2025 09:20:02.9918	2,5136747E+000	3,3507639E-001	1,0986088E-002
31/08/2025 09:20:04.0848	1,9970603E+000	3,3630583E-001	1,1714087E-002
31/08/2025 09:20:05.4512	1,5846856E+000	3,3743808E-001	1,3369924E-002
31/08/2025 09:20:08.0030	1,2596742E+000	3,3845615E-001	1,4823112E-002
31/08/2025 09:20:10.1413	1,0000639E+000	3,3999363E-001	1,6823266E-002
31/08/2025 09:20:12.8233	7,9443753E-001	3,4161052E-001	1,9646203E-002
31/08/2025 09:20:16.1877	6,3126212E-001	3,4333137E-001	2,2708036E-002
31/08/2025 09:20:20.4194	5,0118679E-001	3,4603649E-001	2,5758671E-002
31/08/2025 09:20:25.7263	3,9867833E-001	3,4935930E-001	3,0090669E-002
31/08/2025 09:20:32.4077	3,1619310E-001	3,5283384E-001	3,5158768E-002
31/08/2025 09:20:40.8084	2,5117347E-001	3,5695165E-001	4,0054418E-002
31/08/2025 09:20:51.3604	1,9980818E-001	3,6267686E-001	4,5150656E-002
31/08/2025 09:21:04.6554	1,5846856E-001	3,6985260E-001	5,1432844E-002
31/08/2025 09:21:21.3804	1,2590654E-001	3,7725231E-001	5,8552187E-002
31/08/2025 09:21:42.4007	1,0013975E-001	3,8567212E-001	6,5696865E-002
31/08/2025 09:22:08.8964	7,9421178E-002	3,9775294E-001	7,2183989E-002
31/08/2025 09:22:42.2363	6,3101739E-002	4,1207573E-001	7,7847734E-002
31/08/2025 09:23:24.1751	5,0154075E-002	4,2746910E-001	8,2487427E-002
31/08/2025 09:24:17.0090	3,9804459E-002	4,4369766E-001	8,5824028E-002
31/08/2025 09:25:23.5691	3,1592205E-002	4,6211502E-001	8,5084416E-002
31/08/2025 09:26:47.1875	2,5144994E-002	4,8052150E-001	8,0456279E-002
31/08/2025 09:28:32.5765	1,9949391E-002	4,9610832E-001	7,2346605E-002
31/08/2025 09:30:45.1255	1,5860692E-002	5,0751507E-001	6,2200278E-002
31/08/2025 09:33:32.2758	1,2576789E-002	5,1523805E-001	5,2081171E-002
31/08/2025 09:37:02.2966	1,0009170E-002	5,1982343E-001	4,3737113E-002
31/08/2025 09:37:03.1326	1,9999814E+005	2,8199816E-001	-2,7980378E-002
31/08/2025 09:37:03.5666	1,5885727E+005	2,9320145E-001	-1,9826017E-002
31/08/2025 09:37:04.0016	1,2618765E+005	3,0048794E-001	-1,5495817E-002
31/08/2025 09:37:04.2956	1,0022640E+005	3,0431899E-001	-1,2158269E-002
31/08/2025 09:37:05.9906	7,9609563E+004	3,0595803E-001	-9,9335192E-003
31/08/2025 09:37:07.6846	6,3233004E+004	3,0652592E-001	-7,6021776E-003
31/08/2025 09:37:09.2386	5,0224539E+004	3,0692250E-001	-6,1474941E-003
31/08/2025 09:37:09.9526	3,9897566E+004	3,0715093E-001	-4,4985227E-003
31/08/2025 09:37:10.3866	3,1686090E+004	3,0744022E-001	-3,2069676E-003
31/08/2025 09:37:10.8216	2,5172580E+004	3,0773649E-001	-2,1834758E-003
31/08/2025 09:37:11.2556	1,9995176E+004	3,0778384E-001	-1,4857989E-003
31/08/2025 09:37:11.6896	1,5884798E+004	3,0787832E-001	-7,7731238E-004
31/08/2025 09:37:12.1236	1,2618766E+004	3,0810186E-001	-5,4436383E-005
31/08/2025 09:37:12.5586	1,0020785E+004	3,0836007E-001	4,2377194E-004
31/08/2025 09:37:13.0499	7,9597607E+003	3,0858731E-001	7,6178968E-004
31/08/2025 09:37:13.6314	6,3238188E+003	3,0887958E-001	1,1314137E-003
31/08/2025 09:37:14.1009	5,0216069E+003	3,0927852E-001	1,5084362E-003
31/08/2025 09:37:14.7921	3,9861731E+003	3,0945092E-001	1,6921901E-003
31/08/2025 09:37:15.2591	3,1669595E+003	3,0998379E-001	1,9927220E-003
31/08/2025 09:37:15.7248	2,5158047E+003	3,1008819E-001	2,1554520E-003
31/08/2025 09:37:16.1921	1,9980818E+003	3,1057712E-001	2,3567644E-003
31/08/2025 09:37:16.6581	1,5884750E+003	3,1085047E-001	2,6756302E-003
31/08/2025 09:37:17.1238	1,2604036E+003	3,1130287E-001	2,6762374E-003
31/08/2025 09:37:17.5906	1,0016024E+003	3,1189907E-001	2,8132575E-003
31/08/2025 09:37:18.0578	7,9525409E+002	3,1237116E-001	3,3174406E-003
31/08/2025 09:37:18.5243	6,3181964E+002	3,1261814E-001	3,3161221E-003
31/08/2025 09:37:18.9901	5,0208865E+002	3,1316957E-001	3,6079378E-003
31/08/2025 09:37:19.4576	3,9859698E+002	3,1372631E-001	3,7891236E-003
31/08/2025 09:37:19.9228	3,1672299E+002	3,1427565E-001	3,9693699E-003
31/08/2025 09:37:20.3875	2,5169135E+002	3,1479669E-001	4,2844401E-003
31/08/2025 09:37:20.8551	1,9980818E+002	3,1530985E-001	4,4716299E-003
31/08/2025 09:37:21.3246	1,5862943E+002	3,1595752E-001	4,7604810E-003
31/08/2025 09:37:21.7893	1,2600809E+002	3,1664032E-001	5,0682453E-003
31/08/2025 09:37:22.2566	1,0016024E+002	3,1745577E-001	5,3372746E-003
31/08/2025 09:37:22.7271	7,9516548E+001	3,1810752E-001	5,6246947E-003
31/08/2025 09:37:23.2047	6,3160763E+001	3,1893229E-001	5,9905644E-003
31/08/2025 09:37:23.6701	5,0208866E+001	3,1992707E-001	6,1520622E-003
31/08/2025 09:37:24.1376	3,9859695E+001	3,2088518E-001	6,7307479E-003
31/08/2025 09:37:24.5833	3,1672298E+001	3,2191521E-001	6,9472683E-003
31/08/2025 09:37:25.0488	2,5136747E+001	3,2294708E-001	7,1889628E-003
31/08/2025 09:37:25.5161	1,9980818E+001	3,2384834E-001	7,6173549E-003
31/08/2025 09:37:25.9601	1,5857577E+001	3,2510763E-001	8,0080749E-003
31/08/2025 09:37:26.5070	1,2600809E+001	3,2632190E-001	8,3050923E-003
31/08/2025 09:37:26.9726	1,0016025E+001	3,2765242E-001	8,7676113E-003
31/08/2025 09:37:27.5474	7,9557004E+000	3,2886466E-001	8,8140480E-003
31/08/2025 09:37:27.9273	6,3105812E+000	3,2998663E-001	8,9236768E-003
31/08/2025 09:37:28.3963	5,0144420E+000	3,3112311E-001	9,3910601E-003
31/08/2025 09:37:28.9698	3,9859698E+000	3,3241731E-001	9,8593598E-003
31/08/2025 09:37:29.6779	3,1655185E+000	3,3353856E-001	9,9951811E-003
31/08/2025 09:37:30.5559	2,5136747E+000	3,3445805E-001	1,1083057E-002
31/08/2025 09:37:31.6478	1,9970603E+000	3,3552527E-001	1,1743326E-002
31/08/2025 09:37:33.0142	1,5846856E+000	3,3658946E-001	1,3212776E-002
31/08/2025 09:37:35.5662	1,2596742E+000	3,3776742E-001	1,4783791E-002
31/08/2025 09:37:37.7053	1,0000639E+000	3,3931908E-001	1,6765600E-002
31/08/2025 09:37:40.3873	7,9443753E-001	3,4096494E-001	1,9644596E-002
31/08/2025 09:37:43.7530	6,3126212E-001	3,4265640E-001	2,2743896E-002
31/08/2025 09:37:47.9822	5,0118679E-001	3,4522390E-001	2,5805073E-002
31/08/2025 09:37:53.2898	3,9867833E-001	3,4866405E-001	3,0049754E-002
31/08/2025 09:37:59.9702	3,1619310E-001	3,5222086E-001	3,5116494E-002
31/08/2025 09:38:08.3718	2,5117347E-001	3,5625184E-001	4,0109836E-002
31/08/2025 09:38:18.9229	1,9980818E-001	3,6188367E-001	4,5146134E-002
31/08/2025 09:38:32.2168	1,5846856E-001	3,6911032E-001	5,1360745E-002
31/08/2025 09:38:48.9418	1,2590654E-001	3,7665474E-001	5,8515262E-002
31/08/2025 09:39:09.9622	1,0013975E-001	3,8503692E-001	6,5772295E-002
31/08/2025 09:39:36.4578	7,9421178E-002	3,9695549E-001	7,2220117E-002
31/08/2025 09:40:09.7977	6,3101739E-002	4,1123170E-001	7,7838391E-002
31/08/2025 09:40:51.7364	5,0154075E-002	4,2664909E-001	8,2315691E-002
31/08/2025 09:41:44.5715	3,9804459E-002	4,4293118E-001	8,5618541E-002
31/08/2025 09:42:51.1326	3,1592205E-002	4,6127999E-001	8,4895626E-002
31/08/2025 09:44:14.7520	2,5144994E-002	4,7970158E-001	8,0217056E-002
31/08/2025 09:46:00.1409	1,9949391E-002	4,9550897E-001	7,2198294E-002
31/08/2025 09:48:12.6898	1,5860692E-002	5,0691342E-001	6,2246401E-002
31/08/2025 09:50:59.8402	1,2576789E-002	5,1446563E-001	5,2235831E-002
31/08/2025 09:54:29.8600	1,0009170E-002	5,1906091E-001	4,4147752E-002
31/08/2025 09:54:30.6957	1,9999814E+005	2,8196976E-001	-3,8119216E-002
31/08/2025 09:54:31.1297	1,5885727E+005	2,9317096E-001	-2,6066083E-002
31/08/2025 09:54:31.5637	1,2618765E+005	3,0065721E-001	-1,9287203E-002
31/08/2025 09:54:31.8577	1,0022640E+005	3,0376408E-001	-1,4223079E-002
31/08/2025 09:54:33.5517	7,9609563E+004	3,0514091E-001	-1,0481269E-002
31/08/2025 09:54:35.2457	6,3233004E+004	3,0580705E-001	-7,9152724E-003
31/08/2025 09:54:36.7997	5,0224539E+004	3,0613586E-001	-6,2903841E-003
31/08/2025 09:54:37.5137	3,9897566E+004	3,0672288E-001	-4,7844183E-003
31/08/2025 09:54:37.9477	3,1686090E+004	3,0677488E-001	-3,5106754E-003
31/08/2025 09:54:38.3817	2,5172580E+004	3,0685243E-001	-2,3648397E-003
31/08/2025 09:54:38.8157	1,9995176E+004	3,0720401E-001	-1,5023112E-003
31/08/2025 09:54:39.2497	1,5884798E+004	3,0729160E-001	-5,7978014E-004
31/08/2025 09:54:39.6837	1,2618766E+004	3,0735862E-001	5,5248544E-005
31/08/2025 09:54:40.1177	1,0020785E+004	3,0762744E-001	4,5881807E-004
31/08/2025 09:54:40.6100	7,9597607E+003	3,0798286E-001	8,1551174E-004
31/08/2025 09:54:41.1915	6,3238188E+003	3,0805647E-001	1,1578694E-003
31/08/2025 09:54:41.6609	5,0216069E+003	3,0844665E-001	1,4124446E-003
31/08/2025 09:54:42.3531	3,9861731E+003	3,0882141E-001	1,7714354E-003
31/08/2025 09:54:42.8191	3,1669595E+003	3,0904540E-001	1,9414010E-003
31/08/2025 09:54:43.2849	2,5158047E+003	3,0930349E-001	2,0322260E-003
31/08/2025 09:54:43.7532	1,9980818E+003	3,0976966E-001	2,2143351E-003
31/08/2025 09:54:44.2201	1,5884750E+003	3,1011477E-001	2,6660629E-003
31/08/2025 09:54:44.6859	1,2604036E+003	3,1048948E-001	2,7560636E-003
31/08/2025 09:54:45.1526	1,0016024E+003	3,1102630E-001	2,9165985E-003
31/08/2025 09:54:45.6199	7,9525409E+002	3,1147876E-001	3,1111191E-003
31/08/2025 09:54:46.0864	6,3181964E+002	3,1182662E-001	3,4876536E-003
31/08/2025 09:54:46.5531	5,0208865E+002	3,1245571E-001	3,4681291E-003
31/08/2025 09:54:47.0206	3,9859698E+002	3,1300274E-001	3,7991183E-003
31/08/2025 09:54:47.4859	3,1672299E+002	3,1338596E-001	4,1492842E-003
31/08/2025 09:54:47.9506	2,5169135E+002	3,1391281E-001	4,2187572E-003
31/08/2025 09:54:48.4191	1,9980818E+002	3,1471854E-001	4,4662086E-003
31/08/2025 09:54:48.8887	1,5862943E+002	3,1541646E-001	4,8070601E-003
31/08/2025 09:54:49.3533	1,2600809E+002	3,1601477E-001	4,9737035E-003
31/08/2025 09:54:49.8206	1,0016024E+002	3,1673330E-001	5,3741327E-003
31/08/2025 09:54:50.2912	7,9516548E+001	3,1742898E-001	5,6380113E-003
31/08/2025 09:54:50.7698	6,3160763E+001	3,1841192E-001	5,7836371E-003
31/08/2025 09:54:51.2361	5,0208866E+001	3,1906277E-001	6,1472752E-003
31/08/2025 09:54:51.7037	3,9859695E+001	3,2007506E-001	6,4449385E-003
31/08/2025 09:54:52.1494	3,1672298E+001	3,2094046E-001	6,7657633E-003
31/08/2025 09:54:52.6148	2,5136747E+001	3,2211554E-001	7,3540937E-003
31/08/2025 09:54:53.0821	1,9980818E+001	3,2309201E-001	7,6082977E-003
31/08/2025 09:54:53.5261	1,5857577E+001	3,2438344E-001	7,8851124E-003
31/08/2025 09:54:54.0730	1,2600809E+001	3,2554343E-001	8,2719093E-003
31/08/2025 09:54:54.5386	1,0016025E+001	3,2686612E-001	8,7516196E-003
31/08/2025 09:54:55.1134	7,9557004E+000	3,2804134E-001	8,8690119E-003
31/08/2025 09:54:55.4934	6,3105812E+000	3,2940596E-001	9,0563409E-003
31/08/2025 09:54:55.9624	5,0144420E+000	3,3044419E-001	9,3801720E-003
31/08/2025 09:54:56.5358	3,9859698E+000	3,3180362E-001	9,6827168E-003
31/08/2025 09:54:57.2439	3,1655185E+000	3,3282632E-001	1,0355062E-002
31/08/2025 09:54:58.1219	2,5136747E+000	3,3380526E-001	1,0886800E-002
31/08/2025 09:54:59.2149	1,9970603E+000	3,3494395E-001	1,1834025E-002
31/08/2025 09:55:00.5813	1,5846856E+000	3,3573511E-001	1,3071363E-002
31/08/2025 09:55:03.1331	1,2596742E+000	3,3709231E-001	1,4822344E-002
31/08/2025 09:55:05.2713	1,0000639E+000	3,3826357E-001	1,6930046E-002
31/08/2025 09:55:07.9523	7,9443753E-001	3,4009480E-001	1,9262822E-002
31/08/2025 09:55:11.3181	6,3126212E-001	3,4233096E-001	2,2406651E-002
31/08/2025 09:55:15.5473	5,0118679E-001	3,4464234E-001	2,6315343E-002
31/08/2025 09:55:20.8549	3,9867833E-001	3,4733850E-001	3,0110622E-002
31/08/2025 09:55:27.5353	3,1619310E-001	3,5134467E-001	3,4390513E-002
31/08/2025 09:55:35.9371	2,5117347E-001	3,5636428E-001	3,9822519E-002
31/08/2025 09:55:46.4893	1,9980818E-001	3,6149484E-001	4,5946635E-002
31/08/2025 09:55:59.7848	1,5846856E-001	3,6755946E-001	5,1806901E-002
31/08/2025 09:56:16.5109	1,2590654E-001	3,7525046E-001	5,7595745E-002
31/08/2025 09:56:37.5311	1,0013975E-001	3,8508862E-001	6,4937614E-002
31/08/2025 09:57:04.0258	7,9421178E-002	3,9706096E-001	7,2865941E-002
31/08/2025 09:57:37.3657	6,3101739E-002	4,1064012E-001	7,8535542E-002
31/08/2025 09:58:19.3043	5,0154075E-002	4,2487606E-001	8,1989489E-002
31/08/2025 09:59:12.1393	3,9804459E-002	4,4231433E-001	8,4751762E-002
31/08/2025 10:00:18.7003	3,1592205E-002	4,6115884E-001	8,4983535E-002
31/08/2025 10:01:42.3197	2,5144994E-002	4,7885960E-001	8,0646984E-002
31/08/2025 10:03:27.7086	1,9949391E-002	4,9444708E-001	7,2122529E-002
31/08/2025 10:05:40.2575	1,5860692E-002	5,0603253E-001	6,2108777E-002
31/08/2025 10:08:27.4079	1,2576789E-002	5,1357496E-001	5,2203093E-002
31/08/2025 10:11:57.4286	1,0009170E-002	5,1811689E-001	4,4008590E-002
31/08/2025 10:11:58.2647	1,9999814E+005	2,7916098E-001	-3,3032499E-002
31/08/2025 10:11:58.6987	1,5885727E+005	2,9135582E-001	-2,1702971E-002
31/08/2025 10:11:59.1327	1,2618765E+005	2,9867351E-001	-1,6321870E-002
31/08/2025 10:11:59.4267	1,0022640E+005	3,0305818E-001	-1,2859165E-002
31/08/2025 10:12:01.1207	7,9609563E+004	3,0455559E-001	-1,0149881E-002
31/08/2025 10:12:02.8147	6,3233004E+004	3,0505469E-001	-7,8844409E-003
31/08/2025 10:12:04.3697	5,0224539E+004	3,0546111E-001	-6,1659669E-003
31/08/2025 10:12:05.0837	3,9897566E+004	3,0581626E-001	-4,6886383E-003
31/08/2025 10:12:05.5187	3,1686090E+004	3,0614862E-001	-3,3996648E-003
31/08/2025 10:12:05.9527	2,5172580E+004	3,0611098E-001	-2,3111366E-003
31/08/2025 10:12:06.3867	1,9995176E+004	3,0652162E-001	-1,4962245E-003
31/08/2025 10:12:06.8217	1,5884798E+004	3,0643681E-001	-6,2818185E-004
31/08/2025 10:12:07.2557	1,2618766E+004	3,0675539E-001	-6,7038454E-005
31/08/2025 10:12:07.6897	1,0020785E+004	3,0691177E-001	3,1892667E-004
31/08/2025 10:12:08.1820	7,9597607E+003	3,0727094E-001	7,7967998E-004
31/08/2025 10:12:08.7636	6,3238188E+003	3,0746335E-001	1,1914672E-003
31/08/2025 10:12:09.2329	5,0216069E+003	3,0763319E-001	1,4245809E-003
31/08/2025 10:12:09.9252	3,9861731E+003	3,0810452E-001	1,6757093E-003
31/08/2025 10:12:10.3912	3,1669595E+003	3,0836904E-001	2,0848410E-003
31/08/2025 10:12:10.8569	2,5158047E+003	3,0873355E-001	2,3004434E-003
31/08/2025 10:12:11.3252	1,9980818E+003	3,0929276E-001	2,4350244E-003
31/08/2025 10:12:11.7922	1,5884750E+003	3,0933341E-001	2,6471110E-003
31/08/2025 10:12:12.2580	1,2604036E+003	3,0980888E-001	2,7323009E-003
31/08/2025 10:12:12.7247	1,0016024E+003	3,1031549E-001	2,9425633E-003
31/08/2025 10:12:13.1919	7,9525409E+002	3,1072912E-001	3,2107213E-003
31/08/2025 10:12:13.6584	6,3181964E+002	3,1119132E-001	3,4993307E-003
31/08/2025 10:12:14.1252	5,0208865E+002	3,1185403E-001	3,5339992E-003
31/08/2025 10:12:14.5927	3,9859698E+002	3,1217995E-001	3,8177443E-003
31/08/2025 10:12:15.0579	3,1672299E+002	3,1267267E-001	4,0065469E-003
31/08/2025 10:12:15.5227	2,5169135E+002	3,1324416E-001	4,2502978E-003
31/08/2025 10:12:15.9912	1,9980818E+002	3,1406191E-001	4,5208307E-003
31/08/2025 10:12:16.4607	1,5862943E+002	3,1457111E-001	4,6589128E-003
31/08/2025 10:12:16.9254	1,2600809E+002	3,1525898E-001	5,0532022E-003
31/08/2025 10:12:17.3927	1,0016024E+002	3,1623673E-001	5,3323414E-003
31/08/2025 10:12:17.8632	7,9516548E+001	3,1690207E-001	5,5364654E-003
31/08/2025 10:12:18.3418	6,3160763E+001	3,1759816E-001	5,8723642E-003
31/08/2025 10:12:18.8082	5,0208866E+001	3,1833801E-001	6,0844012E-003
31/08/2025 10:12:19.2757	3,9859695E+001	3,1940293E-001	6,5353131E-003
31/08/2025 10:12:19.7215	3,1672298E+001	3,2032055E-001	6,9297445E-003
31/08/2025 10:12:20.1869	2,5136747E+001	3,2128772E-001	7,3168478E-003
31/08/2025 10:12:20.6552	1,9980818E+001	3,2243261E-001	7,7049253E-003
31/08/2025 10:12:21.0992	1,5857577E+001	3,2351717E-001	7,8022666E-003
31/08/2025 10:12:21.6461	1,2600809E+001	3,2466602E-001	8,1918780E-003
31/08/2025 10:12:22.1117	1,0016025E+001	3,2608861E-001	8,5143512E-003
31/08/2025 10:12:22.6854	7,9557004E+000	3,2742235E-001	8,8927140E-003
31/08/2025 10:12:23.0655	6,3105812E+000	3,2848656E-001	9,2082554E-003
31/08/2025 10:12:23.5345	5,0144420E+000	3,2971409E-001	9,5525393E-003
31/08/2025 10:12:24.1079	3,9859698E+000	3,3104715E-001	9,6823750E-003
31/08/2025 10:12:24.8160	3,1655185E+000	3,3170176E-001	1,0227072E-002
31/08/2025 10:12:25.6940	2,5136747E+000	3,3298910E-001	1,0818934E-002
31/08/2025 10:12:26.7869	1,9970603E+000	3,3401361E-001	1,1928642E-002
31/08/2025 10:12:28.1533	1,5846856E+000	3,3512664E-001	1,3141599E-002
31/08/2025 10:12:30.7052	1,2596742E+000	3,3628088E-001	1,4806864E-002
31/08/2025 10:12:32.8434	1,0000639E+000	3,3753470E-001	1,6820790E-002
31/08/2025 10:12:35.5254	7,9443753E-001	3,3942977E-001	1,9301835E-002