File: data/phase_2a/Sergey/1/20.7/02 polarisation/SN50_C5D2E1_hr_0,1MFeCN6_in_1M_KCl_3306mL_symmetric_balanced_4_point_PEIS_10mHz_200kHz_10mV_02_CP_C16.txt
time/s	I/mA	<Ewe/V>
27/08/2025 09:36:17.0800	1,6250411E-002	-5,7684928E-003
27/08/2025 09:36:19.3800	7,9776440E-003	-5,7561053E-003
27/08/2025 09:36:21.6800	7,3412773E-003	-5,7572131E-003
27/08/2025 09:36:23.9800	8,6140092E-003	-5,7643186E-003
27/08/2025 09:36:26.2800	5,4321769E-003	-5,7643186E-003
27/08/2025 09:36:28.5800	7,9776440E-003	-5,7681384E-003
27/08/2025 09:36:30.8800	8,6140092E-003	-5,7590469E-003
27/08/2025 09:36:33.1800	1,1795843E-002	-5,7576718E-003
27/08/2025 09:36:35.4800	7,9776440E-003	-5,7666101E-003
27/08/2025 09:36:37.7800	7,9776440E-003	-5,7573663E-003
27/08/2025 09:36:40.0800	7,9776440E-003	-5,7607656E-003
27/08/2025 09:36:42.3800	9,8867435E-003	-5,7644709E-003
27/08/2025 09:36:44.6800	8,6140092E-003	-5,7644709E-003
27/08/2025 09:36:46.9800	1,1159477E-002	-5,7518273E-003
27/08/2025 09:36:49.2800	1,4341311E-002	-5,7602311E-003
27/08/2025 09:36:51.5800	6,7049102E-003	-5,7648532E-003
27/08/2025 09:36:53.8800	9,2503773E-003	-5,7536224E-003
27/08/2025 09:36:56.1800	9,2503773E-003	-5,7551120E-003
27/08/2025 09:36:58.4800	4,1594426E-003	-5,7605747E-003
27/08/2025 09:37:00.7800	6,7049102E-003	-5,7655787E-003
27/08/2025 09:37:03.0800	1,2432210E-002	-5,7604606E-003
27/08/2025 09:37:05.3800	7,9776440E-003	-5,7613770E-003
27/08/2025 09:37:07.6800	4,7958097E-003	-5,7583596E-003
27/08/2025 09:37:09.9800	2,8867100E-003	-5,7581682E-003
27/08/2025 09:37:12.2800	9,2503773E-003	-5,7588560E-003
27/08/2025 09:37:14.5800	4,1594426E-003	-5,7595815E-003
27/08/2025 09:37:16.8800	5,4321769E-003	-5,7562967E-003
27/08/2025 09:37:19.1800	3,5230771E-003	-5,7585118E-003
27/08/2025 09:37:21.4800	7,3412773E-003	-5,7623703E-003
27/08/2025 09:37:23.7800	6,0685435E-003	-5,7592760E-003
27/08/2025 09:37:26.0800	7,3412773E-003	-5,7545775E-003
27/08/2025 09:37:28.3800	1,1795843E-002	-5,7634017E-003
27/08/2025 09:37:30.6800	8,6140092E-003	-5,7645859E-003
27/08/2025 09:37:32.9800	7,3412773E-003	-5,7575568E-003
27/08/2025 09:37:35.2800	9,2503773E-003	-5,7604606E-003
27/08/2025 09:37:37.5800	1,2432210E-002	-5,7640127E-003
27/08/2025 09:37:39.8800	9,2503773E-003	-5,7618357E-003
27/08/2025 09:37:42.1800	8,6140092E-003	-5,7557235E-003
27/08/2025 09:37:44.4800	4,7958097E-003	-5,7652732E-003
27/08/2025 09:37:46.7800	7,3412773E-003	-5,7594292E-003
27/08/2025 09:37:49.0800	6,7049102E-003	-5,7572131E-003
27/08/2025 09:37:51.3800	3,5230771E-003	-5,7551120E-003
27/08/2025 09:37:53.6800	8,6140092E-003	-5,7690549E-003
27/08/2025 09:37:55.9800	1,0523110E-002	-5,7609947E-003
27/08/2025 09:37:58.2800	9,2503773E-003	-5,7590851E-003
27/08/2025 09:38:00.5800	7,9776440E-003	-5,7679852E-003
27/08/2025 09:38:02.8800	6,7049102E-003	-5,7642423E-003
27/08/2025 09:38:05.1800	1,0523110E-002	-5,7559912E-003
27/08/2025 09:38:07.4800	4,7958097E-003	-5,7587796E-003
27/08/2025 09:38:09.7800	1,1159477E-002	-5,7647005E-003
27/08/2025 09:38:12.0800	1,3068578E-002	-5,7588178E-003
27/08/2025 09:38:14.3800	8,6140092E-003	-5,7584741E-003
27/08/2025 09:38:16.6800	9,7761012E-004	-5,7639745E-003
27/08/2025 09:38:18.9800	1,1159477E-002	-5,7591614E-003
27/08/2025 09:38:21.2800	1,1159477E-002	-5,7633254E-003
27/08/2025 09:38:23.5800	1,2432210E-002	-5,7604983E-003
27/08/2025 09:38:25.8800	9,8867435E-003	-5,7644709E-003
27/08/2025 09:38:28.1800	6,7049102E-003	-5,7613007E-003
27/08/2025 09:38:30.4800	4,7958097E-003	-5,7619121E-003
27/08/2025 09:38:32.7800	7,3412773E-003	-5,7637454E-003
27/08/2025 09:38:35.0800	9,8867435E-003	-5,7612625E-003
27/08/2025 09:38:37.3800	1,1159477E-002	-5,7591996E-003
27/08/2025 09:38:39.6800	1,2432210E-002	-5,7677566E-003
27/08/2025 09:38:41.9800	6,7049102E-003	-5,7590082E-003
27/08/2025 09:38:44.2800	9,2503773E-003	-5,7604606E-003
27/08/2025 09:38:46.5800	5,4321769E-003	-5,7627140E-003
27/08/2025 09:38:48.8800	9,2503773E-003	-5,7659992E-003
27/08/2025 09:38:51.1800	9,2503773E-003	-5,7601165E-003
27/08/2025 09:38:53.4800	7,3412773E-003	-5,7615298E-003
27/08/2025 09:38:55.7800	1,4977678E-002	-5,7655405E-003
27/08/2025 09:38:58.0800	7,9776440E-003	-5,7603838E-003
27/08/2025 09:39:00.3800	1,1795843E-002	-5,7625612E-003
27/08/2025 09:39:02.6800	1,1795843E-002	-5,7625230E-003
27/08/2025 09:39:04.9800	1,3068578E-002	-5,7675652E-003
27/08/2025 09:39:07.2800	5,4321769E-003	-5,7611479E-003
27/08/2025 09:39:09.5800	9,2503773E-003	-5,7634395E-003
27/08/2025 09:39:11.8800	1,2432210E-002	-5,7624462E-003
27/08/2025 09:39:14.1800	1,3704944E-002	-5,7591996E-003
27/08/2025 09:39:16.4800	7,9776440E-003	-5,7632490E-003
27/08/2025 09:39:18.7800	7,3412773E-003	-5,7580536E-003
27/08/2025 09:39:21.0800	6,7049102E-003	-5,7617589E-003
27/08/2025 09:39:23.3800	5,4321769E-003	-5,7556089E-003
27/08/2025 09:39:25.6800	3,5230771E-003	-5,7597728E-003
27/08/2025 09:39:27.9800	1,1795843E-002	-5,7582827E-003
27/08/2025 09:39:30.2800	1,3068578E-002	-5,7577481E-003
27/08/2025 09:39:32.5800	9,8867435E-003	-5,7576331E-003
27/08/2025 09:39:34.8800	7,3412773E-003	-5,7606511E-003
27/08/2025 09:39:37.1800	9,8867435E-003	-5,7583977E-003
27/08/2025 09:39:39.4800	6,7049102E-003	-5,7559144E-003
27/08/2025 09:39:41.7800	1,4977678E-002	-5,7562967E-003
27/08/2025 09:39:44.0800	1,0523110E-002	-5,7549598E-003
27/08/2025 09:39:46.3800	5,4321769E-003	-5,7565635E-003
27/08/2025 09:39:48.6800	9,8867435E-003	-5,7583977E-003
27/08/2025 09:39:50.9800	1,4977678E-002	-5,7519418E-003
27/08/2025 09:39:53.2800	8,6140092E-003	-5,7548829E-003
27/08/2025 09:39:55.5800	3,5230771E-003	-5,7583209E-003
27/08/2025 09:39:57.8800	7,3412773E-003	-5,7553798E-003
27/08/2025 09:40:00.1800	9,2503773E-003	-5,7533169E-003
27/08/2025 09:40:02.4800	9,8867435E-003	-5,7557998E-003
27/08/2025 09:40:04.7800	9,2503773E-003	-5,7554562E-003
27/08/2025 09:40:07.0800	9,7761012E-004	-5,7496876E-003
27/08/2025 09:40:09.3800	2,8867100E-003	-5,7525910E-003
27/08/2025 09:40:11.6800	7,3412773E-003	-5,7557235E-003
27/08/2025 09:40:13.9800	9,2503773E-003	-5,7556853E-003
27/08/2025 09:40:16.2800	7,3412773E-003	-5,7515600E-003
27/08/2025 09:40:18.5800	1,2432210E-002	-5,7621025E-003
27/08/2025 09:40:20.8800	1,4977678E-002	-5,7576718E-003
27/08/2025 09:40:23.1800	6,0685435E-003	-5,7558762E-003
27/08/2025 09:40:25.4800	2,8867100E-003	-5,7588178E-003
27/08/2025 09:40:27.7800	9,2503773E-003	-5,7586264E-003
27/08/2025 09:40:30.0800	1,1795843E-002	-5,7562580E-003
27/08/2025 09:40:32.3800	1,4341311E-002	-5,7586264E-003
27/08/2025 09:40:34.6800	9,2503773E-003	-5,7635545E-003
27/08/2025 09:40:36.9800	1,0523110E-002	-5,7589705E-003
27/08/2025 09:40:39.2800	1,4977678E-002	-5,7570604E-003
27/08/2025 09:40:41.5800	7,3412773E-003	-5,7644327E-003
27/08/2025 09:40:43.8800	5,4321769E-003	-5,7622939E-003
27/08/2025 09:40:46.1800	1,0523110E-002	-5,7592760E-003
27/08/2025 09:40:48.4800	6,7049102E-003	-5,7629431E-003
27/08/2025 09:40:50.7800	4,7958097E-003	-5,7619880E-003
27/08/2025 09:40:53.0800	1,4341311E-002	-5,7595051E-003
27/08/2025 09:40:55.3800	9,8867435E-003	-5,7580918E-003
27/08/2025 09:40:57.6800	1,7523142E-002	-5,7620644E-003
27/08/2025 09:40:59.9800	9,2503773E-003	-5,7611093E-003
27/08/2025 09:41:02.2800	1,4977678E-002	-5,7616062E-003
27/08/2025 09:41:04.5800	1,1795843E-002	-5,7681384E-003
27/08/2025 09:41:06.8800	1,4977678E-002	-5,7593142E-003
27/08/2025 09:41:09.1800	9,2503773E-003	-5,7604983E-003
27/08/2025 09:41:11.4800	8,6140092E-003	-5,7558380E-003
27/08/2025 09:41:13.7800	1,0523110E-002	-5,7630194E-003
27/08/2025 09:41:16.0800	7,9776440E-003	-5,7527055E-003
27/08/2025 09:41:18.3800	7,3412773E-003	-5,7573281E-003
27/08/2025 09:41:20.6800	6,7049102E-003	-5,7633254E-003
27/08/2025 09:41:22.9800	6,7049102E-003	-5,7587414E-003
27/08/2025 09:41:25.2800	1,0523110E-002	-5,7561053E-003
27/08/2025 09:41:27.5800	2,8867100E-003	-5,7640891E-003
27/08/2025 09:41:29.8800	6,7049102E-003	-5,7656555E-003
27/08/2025 09:41:32.1800	6,0685435E-003	-5,7573281E-003
27/08/2025 09:41:34.4800	6,7049102E-003	-5,7590851E-003
27/08/2025 09:41:36.7800	9,2503773E-003	-5,7617971E-003
27/08/2025 09:41:39.0800	5,4321769E-003	-5,7621407E-003
27/08/2025 09:41:41.3800	1,0523110E-002	-5,7625612E-003
27/08/2025 09:41:43.6800	3,4124311E-004	-5,7504904E-003
27/08/2025 09:41:45.9800	1,1795843E-002	-5,7619121E-003
27/08/2025 09:41:48.2800	4,1594426E-003	-5,7588560E-003
27/08/2025 09:41:50.5800	9,8867435E-003	-5,7605747E-003
27/08/2025 09:41:52.8800	1,1159477E-002	-5,7652737E-003
27/08/2025 09:41:55.1800	4,7958097E-003	-5,7588560E-003
27/08/2025 09:41:57.4800	1,2432210E-002	-5,7556089E-003
27/08/2025 09:41:59.7800	8,6140092E-003	-5,7661138E-003
27/08/2025 09:42:02.0800	9,2503773E-003	-5,7572513E-003
27/08/2025 09:42:04.3800	7,9776440E-003	-5,7584741E-003
27/08/2025 09:42:06.6800	6,0685435E-003	-5,7699336E-003
27/08/2025 09:42:08.9800	6,7049102E-003	-5,7705068E-003
27/08/2025 09:42:11.2800	7,9776440E-003	-5,7604220E-003
27/08/2025 09:42:13.5800	1,1795843E-002	-5,7645859E-003
27/08/2025 09:42:15.8800	6,7049102E-003	-5,7708886E-003
27/08/2025 09:42:18.1800	1,1159477E-002	-5,7607656E-003
27/08/2025 09:42:20.4800	1,4977678E-002	-5,7603456E-003
27/08/2025 09:42:22.7800	1,3068578E-002	-5,7696281E-003
27/08/2025 09:42:25.0800	1,4341311E-002	-5,7699718E-003
27/08/2025 09:42:27.3800	6,7049102E-003	-5,7629053E-003
27/08/2025 09:42:29.6800	1,6139771E-003	-5,7595051E-003
27/08/2025 09:42:31.9800	6,7049102E-003	-5,7690935E-003
27/08/2025 09:42:34.2800	1,5614044E-002	-5,7622558E-003
27/08/2025 09:42:36.5800	1,4977678E-002	-5,7605365E-003
27/08/2025 09:42:38.8800	4,7958097E-003	-5,7687499E-003
27/08/2025 09:42:41.1800	1,3068578E-002	-5,7591232E-003
27/08/2025 09:42:43.4800	9,8867435E-003	-5,7625994E-003
27/08/2025 09:42:45.7800	1,1795843E-002	-5,7655023E-003
27/08/2025 09:42:48.0800	6,7049102E-003	-5,7696663E-003
27/08/2025 09:42:50.3800	1,6250411E-002	-5,7559144E-003
27/08/2025 09:42:52.6800	1,3068578E-002	-5,7672216E-003
27/08/2025 09:42:54.9800	1,4341311E-002	-5,7688644E-003
27/08/2025 09:42:57.2800	3,5230771E-003	-5,7633636E-003
27/08/2025 09:42:59.5800	7,9776440E-003	-5,7585500E-003
27/08/2025 09:43:01.8800	1,4341311E-002	-5,7648150E-003
27/08/2025 09:43:04.1800	1,4977678E-002	-5,7628672E-003
27/08/2025 09:43:06.4800	4,7958097E-003	-5,7570222E-003
27/08/2025 09:43:08.7800	9,8867435E-003	-5,7619503E-003
27/08/2025 09:43:11.0800	6,7049102E-003	-5,7654642E-003
27/08/2025 09:43:13.3800	1,2432210E-002	-5,7599638E-003
27/08/2025 09:43:15.6800	6,7049102E-003	-5,7638986E-003
27/08/2025 09:43:17.9800	1,3068578E-002	-5,7687880E-003
27/08/2025 09:43:20.2800	1,1795843E-002	-5,7655023E-003
27/08/2025 09:43:22.5800	6,7049102E-003	-5,7644709E-003
27/08/2025 09:43:24.8800	9,2503773E-003	-5,7635158E-003
27/08/2025 09:43:27.1800	4,1594426E-003	-5,7666101E-003
27/08/2025 09:43:29.4800	9,2503773E-003	-5,7578627E-003
27/08/2025 09:43:31.7800	6,7049102E-003	-5,7587796E-003
27/08/2025 09:43:34.0800	1,6139771E-003	-5,7694754E-003
27/08/2025 09:43:36.3800	4,7958097E-003	-5,7579009E-003
27/08/2025 09:43:38.6800	6,0685435E-003	-5,7573663E-003
27/08/2025 09:43:40.9800	9,2503773E-003	-5,7703159E-003
27/08/2025 09:43:43.2800	1,3068578E-002	-5,7631722E-003
27/08/2025 09:43:45.5800	7,3412773E-003	-5,7593905E-003
27/08/2025 09:43:47.8800	5,4321769E-003	-5,7651587E-003
27/08/2025 09:43:50.1800	4,7958097E-003	-5,7610711E-003
27/08/2025 09:43:52.4800	1,0523110E-002	-5,7586646E-003
27/08/2025 09:43:54.7800	5,4321769E-003	-5,7585882E-003
27/08/2025 09:43:57.0800	6,0685435E-003	-5,7615680E-003
27/08/2025 09:43:59.3800	1,2432210E-002	-5,7564494E-003
27/08/2025 09:44:01.6800	6,7049102E-003	-5,7605747E-003
27/08/2025 09:44:03.9800	7,9776440E-003	-5,7618357E-003
27/08/2025 09:44:06.2800	1,3068578E-002	-5,7630194E-003
27/08/2025 09:44:08.5800	6,7049102E-003	-5,7637836E-003
27/08/2025 09:44:10.8800	1,3704944E-002	-5,7627140E-003
27/08/2025 09:44:13.1800	2,8867100E-003	-5,7611093E-003
27/08/2025 09:44:15.4800	1,3704944E-002	-5,7553416E-003
27/08/2025 09:44:17.7800	1,3704944E-002	-5,7627521E-003
27/08/2025 09:44:20.0800	9,8867435E-003	-5,7671834E-003
27/08/2025 09:44:22.3800	1,2432210E-002	-5,7615680E-003
27/08/2025 09:44:24.6800	1,3704944E-002	-5,7647387E-003
27/08/2025 09:44:26.9800	1,0523110E-002	-5,7616062E-003
27/08/2025 09:44:29.2800	1,4977678E-002	-5,7609570E-003
27/08/2025 09:44:31.5800	9,2503773E-003	-5,7645859E-003
27/08/2025 09:44:33.8800	7,3412773E-003	-5,7663047E-003
27/08/2025 09:44:36.1800	9,8867435E-003	-5,7635158E-003
27/08/2025 09:44:38.4800	7,9776440E-003	-5,7606129E-003
27/08/2025 09:44:40.7800	9,7761012E-004	-5,7758163E-003
27/08/2025 09:44:43.0800	1,0523110E-002	-5,7672597E-003
27/08/2025 09:44:45.3800	1,4977678E-002	-5,7642804E-003
27/08/2025 09:44:47.6800	1,1159477E-002	-5,7724928E-003
27/08/2025 09:44:49.9800	8,6140092E-003	-5,7674889E-003
27/08/2025 09:44:52.2800	5,4321769E-003	-5,7626376E-003
27/08/2025 09:44:54.5800	6,7049102E-003	-5,7674125E-003
27/08/2025 09:44:56.8800	1,1795843E-002	-5,7675270E-003
27/08/2025 09:44:59.1800	4,1594426E-003	-5,7645091E-003
27/08/2025 09:45:01.4800	5,4321769E-003	-5,7650441E-003
27/08/2025 09:45:03.7800	7,3412773E-003	-5,7739061E-003
27/08/2025 09:45:06.0800	7,3412773E-003	-5,7648532E-003
27/08/2025 09:45:08.3800	4,1594426E-003	-5,7619503E-003
27/08/2025 09:45:10.6800	6,0685435E-003	-5,7659992E-003
27/08/2025 09:45:12.9800	2,8867100E-003	-5,7643568E-003
27/08/2025 09:45:15.2800	9,8867435E-003	-5,7583596E-003
27/08/2025 09:45:17.5800	1,1795843E-002	-5,7596196E-003
27/08/2025 09:45:19.8800	1,4341311E-002	-5,7668397E-003
27/08/2025 09:45:22.1800	4,7958097E-003	-5,7671834E-003
27/08/2025 09:45:24.4800	4,7958097E-003	-5,7622939E-003
27/08/2025 09:45:26.7800	6,7049102E-003	-5,7707741E-003
27/08/2025 09:45:29.0800	7,9776440E-003	-5,7683294E-003
27/08/2025 09:45:31.3800	6,0685435E-003	-5,7651969E-003
27/08/2025 09:45:33.6800	7,3412773E-003	-5,7654642E-003
27/08/2025 09:45:35.9800	5,4321769E-003	-5,7719965E-003
27/08/2025 09:45:38.2800	6,7049102E-003	-5,7638218E-003
27/08/2025 09:45:40.5800	9,2503773E-003	-5,7647005E-003
27/08/2025 09:45:42.8800	1,8159511E-002	-5,7675270E-003
27/08/2025 09:45:45.1800	1,4977678E-002	-5,7683294E-003
27/08/2025 09:45:47.4800	9,8867435E-003	-5,7618357E-003
27/08/2025 09:45:49.7800	4,7958097E-003	-5,7647768E-003
27/08/2025 09:45:52.0800	7,3412773E-003	-5,7728752E-003
27/08/2025 09:45:54.3800	4,1594426E-003	-5,7668397E-003
27/08/2025 09:45:56.6800	8,6140092E-003	-5,7698954E-003
27/08/2025 09:45:58.9800	1,0523110E-002	-5,7624085E-003
27/08/2025 09:46:01.2800	1,1159477E-002	-5,7602692E-003
27/08/2025 09:46:03.5800	9,2503773E-003	-5,7640509E-003
27/08/2025 09:46:05.8800	6,0685435E-003	-5,7701631E-003
27/08/2025 09:46:08.1800	6,0685435E-003	-5,7653501E-003
27/08/2025 09:46:10.4800	1,0523110E-002	-5,7654260E-003
27/08/2025 09:46:12.7800	7,3412773E-003	-5,7655405E-003
27/08/2025 09:46:15.0800	6,7049102E-003	-5,7689785E-003
27/08/2025 09:46:17.3326	2,6513287E+001	3,9823954E-003
27/08/2025 09:46:19.6326	2,6508831E+001	6,2398799E-003
27/08/2025 09:46:21.9326	2,6506924E+001	7,2065215E-003
27/08/2025 09:46:24.2326	2,6508196E+001	7,7384133E-003
27/08/2025 09:46:26.5326	2,6513922E+001	8,0248723E-003
27/08/2025 09:46:28.8326	2,6510105E+001	8,1815673E-003
27/08/2025 09:46:31.1326	2,6505014E+001	8,2753478E-003
27/08/2025 09:46:33.4326	2,6506924E+001	8,3224475E-003
27/08/2025 09:46:35.7326	2,6508831E+001	8,3479267E-003
27/08/2025 09:46:38.0326	2,6508196E+001	8,3794035E-003
27/08/2025 09:46:40.3326	2,6505014E+001	8,3790217E-003
27/08/2025 09:46:42.6326	2,6512012E+001	8,3865458E-003
27/08/2025 09:46:44.9326	2,6514559E+001	8,4084347E-003
27/08/2025 09:46:47.2326	2,6510105E+001	8,4295981E-003
27/08/2025 09:46:49.5326	2,6506285E+001	8,4354421E-003
27/08/2025 09:46:51.8326	2,6508196E+001	8,4348302E-003
27/08/2025 09:46:54.1326	2,6508831E+001	8,4634805E-003
27/08/2025 09:46:56.4326	2,6504377E+001	8,4933527E-003
27/08/2025 09:46:58.7326	2,6513287E+001	8,5098166E-003
27/08/2025 09:47:01.0326	2,6507559E+001	8,5229957E-003
27/08/2025 09:47:03.3326	2,6511377E+001	8,5378932E-003
27/08/2025 09:47:05.6326	2,6510105E+001	8,5597057E-003
27/08/2025 09:47:07.9326	2,6512012E+001	8,5845357E-003
27/08/2025 09:47:10.2326	2,6507559E+001	8,5995477E-003
27/08/2025 09:47:12.5326	2,6507559E+001	8,6113131E-003
27/08/2025 09:47:14.8326	2,6514559E+001	8,6296489E-003
27/08/2025 09:47:17.1326	2,6507559E+001	8,6587574E-003
27/08/2025 09:47:19.4326	2,6508831E+001	8,6768633E-003
27/08/2025 09:47:21.7326	2,6507559E+001	8,6825555E-003
27/08/2025 09:47:24.0326	2,6511377E+001	8,7117013E-003
27/08/2025 09:47:26.3326	2,6512651E+001	8,7327883E-003
27/08/2025 09:47:28.6326	2,6508831E+001	8,7476475E-003
27/08/2025 09:47:30.9326	2,6503107E+001	8,7534925E-003
27/08/2025 09:47:33.2326	2,6507559E+001	8,7864585E-003
27/08/2025 09:47:35.5326	2,6512012E+001	8,8075064E-003
27/08/2025 09:47:37.8326	2,6509470E+001	8,8239321E-003
27/08/2025 09:47:40.1326	2,6511377E+001	8,8499459E-003
27/08/2025 09:47:42.4326	2,6513287E+001	8,8616349E-003
27/08/2025 09:47:44.7326	2,6508196E+001	8,8808881E-003
27/08/2025 09:47:47.0326	2,6512651E+001	8,9043044E-003
27/08/2025 09:47:49.3326	2,6515194E+001	8,9248940E-003
27/08/2025 09:47:51.6326	2,6514559E+001	8,9283707E-003
27/08/2025 09:47:53.9326	2,6509470E+001	8,9465147E-003
27/08/2025 09:47:56.2326	2,6512012E+001	8,9821927E-003
27/08/2025 09:47:58.5326	2,6505014E+001	9,0066036E-003
27/08/2025 09:48:00.8326	2,6510742E+001	9,0121422E-003
27/08/2025 09:48:03.1326	2,6511377E+001	9,0334192E-003
27/08/2025 09:48:05.4326	2,6509470E+001	9,0561472E-003
27/08/2025 09:48:07.7326	2,6510742E+001	9,0760114E-003
27/08/2025 09:48:10.0326	2,6509470E+001	9,0905661E-003
27/08/2025 09:48:12.3326	2,6514559E+001	9,1082910E-003
27/08/2025 09:48:14.6326	2,6513922E+001	9,1286888E-003
27/08/2025 09:48:16.9326	2,6509470E+001	9,1518005E-003
27/08/2025 09:48:19.1328	1,4341311E-002	-2,5156303E-003
27/08/2025 09:48:21.4328	9,8867435E-003	-3,6263613E-003
27/08/2025 09:48:23.7328	1,2432210E-002	-4,1995468E-003
27/08/2025 09:48:26.0328	7,3412773E-003	-4,5028133E-003
27/08/2025 09:48:28.3328	9,2503773E-003	-4,6853311E-003
27/08/2025 09:48:30.6328	5,4321769E-003	-4,7581783E-003
27/08/2025 09:48:32.9328	-1,5678566E-003	-4,7974088E-003
27/08/2025 09:48:35.2328	4,7958097E-003	-4,8110466E-003
27/08/2025 09:48:37.5328	7,9776440E-003	-4,8069591E-003
27/08/2025 09:48:39.8328	7,3412773E-003	-4,7960337E-003
27/08/2025 09:48:42.1328	9,2503773E-003	-4,7969888E-003
27/08/2025 09:48:44.4328	1,5614044E-002	-4,7925957E-003
27/08/2025 09:48:46.7328	1,5614044E-002	-4,7820150E-003
27/08/2025 09:48:49.0328	1,6139771E-003	-4,7802194E-003
27/08/2025 09:48:51.3328	3,5230771E-003	-4,7813654E-003
27/08/2025 09:48:53.6328	-2,8405902E-003	-4,7771255E-003
27/08/2025 09:48:55.9328	7,9776440E-003	-4,7772015E-003
27/08/2025 09:48:58.2328	1,1159477E-002	-4,7797989E-003
27/08/2025 09:49:00.5328	2,8867100E-003	-4,7711278E-003
27/08/2025 09:49:02.8328	1,0523110E-002	-4,7768196E-003
27/08/2025 09:49:05.1328	9,8867435E-003	-4,7788825E-003
27/08/2025 09:49:07.4328	7,9776440E-003	-4,7727702E-003
27/08/2025 09:49:09.7328	-9,3149021E-004	-4,7697905E-003
27/08/2025 09:49:12.0328	2,2503431E-003	-4,7796844E-003
27/08/2025 09:49:14.3328	4,1594426E-003	-4,7763227E-003
27/08/2025 09:49:16.6328	1,4977678E-002	-4,7731907E-003
27/08/2025 09:49:18.9328	1,2432210E-002	-4,7778892E-003
27/08/2025 09:49:21.2328	6,0685435E-003	-4,7801808E-003
27/08/2025 09:49:23.5328	1,3068578E-002	-4,7757882E-003
27/08/2025 09:49:25.8328	2,2503431E-003	-4,7710133E-003
27/08/2025 09:49:28.1328	1,1159477E-002	-4,7782711E-003
27/08/2025 09:49:30.4328	4,1594426E-003	-4,7753681E-003
27/08/2025 09:49:32.7328	7,3412773E-003	-4,7712806E-003
27/08/2025 09:49:35.0328	8,6140092E-003	-4,7788825E-003
27/08/2025 09:49:37.3328	9,8867435E-003	-4,7783856E-003
27/08/2025 09:49:39.6328	4,1594426E-003	-4,7737253E-003
27/08/2025 09:49:41.9328	7,9776440E-003	-4,7759791E-003
27/08/2025 09:49:44.2328	8,6140092E-003	-4,7783093E-003
27/08/2025 09:49:46.5328	9,2503773E-003	-4,7737635E-003
27/08/2025 09:49:48.8328	7,9776440E-003	-4,7700200E-003
27/08/2025 09:49:51.1328	9,8867435E-003	-4,7765905E-003
27/08/2025 09:49:53.4328	1,1159477E-002	-4,7785006E-003
27/08/2025 09:49:55.7328	7,9776440E-003	-4,7726561E-003
27/08/2025 09:49:58.0328	6,0685435E-003	-4,7757500E-003
27/08/2025 09:50:00.3328	8,6140092E-003	-4,7734962E-003
27/08/2025 09:50:02.6328	1,6139771E-003	-4,7715865E-003
27/08/2025 09:50:04.9328	1,3068578E-002	-4,7728084E-003
27/08/2025 09:50:07.2328	6,7049102E-003	-4,7763996E-003
27/08/2025 09:50:09.5328	1,0523110E-002	-4,7713951E-003
27/08/2025 09:50:11.8328	4,1594426E-003	-4,7710896E-003
27/08/2025 09:50:14.1328	8,6140092E-003	-4,7786152E-003
27/08/2025 09:50:16.4328	9,2503773E-003	-4,7758264E-003
27/08/2025 09:50:18.6330	-2,6488420E+001	-1,6050449E-002
27/08/2025 09:50:20.9330	-2,6483328E+001	-1,7373340E-002
27/08/2025 09:50:23.2330	-2,6482054E+001	-1,8053677E-002
27/08/2025 09:50:25.5330	-2,6483328E+001	-1,8425016E-002
27/08/2025 09:50:27.8330	-2,6476965E+001	-1,8638398E-002
27/08/2025 09:50:30.1330	-2,6486509E+001	-1,8757353E-002
27/08/2025 09:50:32.4330	-2,6476326E+001	-1,8824469E-002
27/08/2025 09:50:34.7330	-2,6481419E+001	-1,8851249E-002
27/08/2025 09:50:37.0330	-2,6488420E+001	-1,8869888E-002
27/08/2025 09:50:39.3330	-2,6482054E+001	-1,8880928E-002
27/08/2025 09:50:41.6330	-2,6478237E+001	-1,8897125E-002
27/08/2025 09:50:43.9330	-2,6487148E+001	-1,8913476E-002
27/08/2025 09:50:46.2330	-2,6483328E+001	-1,8918479E-002
27/08/2025 09:50:48.5330	-2,6478872E+001	-1,8936127E-002
27/08/2025 09:50:50.8330	-2,6480783E+001	-1,8968061E-002
27/08/2025 09:50:53.1330	-2,6478237E+001	-1,8983914E-002
27/08/2025 09:50:55.4330	-2,6485874E+001	-1,8988576E-002
27/08/2025 09:50:57.7330	-2,6487148E+001	-1,9009585E-002
27/08/2025 09:51:00.0330	-2,6489056E+001	-1,9029485E-002
27/08/2025 09:51:02.3330	-2,6485235E+001	-1,9050611E-002
27/08/2025 09:51:04.6330	-2,6482054E+001	-1,9071316E-002
27/08/2025 09:51:06.9330	-2,6487783E+001	-1,9085716E-002
27/08/2025 09:51:09.2330	-2,6477600E+001	-1,9098973E-002
27/08/2025 09:51:11.5330	-2,6480783E+001	-1,9122427E-002
27/08/2025 09:51:13.8330	-2,6483328E+001	-1,9156424E-002
27/08/2025 09:51:16.1330	-2,6477600E+001	-1,9159593E-002
27/08/2025 09:51:18.4330	-2,6489691E+001	-1,9180221E-002
27/08/2025 09:51:20.7330	-2,6479511E+001	-1,9207573E-002
27/08/2025 09:51:23.0330	-2,6485235E+001	-1,9228928E-002
27/08/2025 09:51:25.3330	-2,6482054E+001	-1,9231409E-002
27/08/2025 09:51:27.6330	-2,6487148E+001	-1,9251160E-002
27/08/2025 09:51:29.9330	-2,6487783E+001	-1,9278701E-002
27/08/2025 09:51:32.2330	-2,6482054E+001	-1,9299712E-002
27/08/2025 09:51:34.5330	-2,6480146E+001	-1,9315563E-002
27/08/2025 09:51:36.8330	-2,6486509E+001	-1,9327711E-002
27/08/2025 09:51:39.1330	-2,6480783E+001	-1,9343602E-002
27/08/2025 09:51:41.4330	-2,6481419E+001	-1,9368317E-002
27/08/2025 09:51:43.7330	-2,6489691E+001	-1,9398609E-002
27/08/2025 09:51:46.0330	-2,6479511E+001	-1,9403154E-002
27/08/2025 09:51:48.3330	-2,6491598E+001	-1,9415569E-002
27/08/2025 09:51:50.6330	-2,6483328E+001	-1,9449454E-002
27/08/2025 09:51:52.9330	-2,6477600E+001	-1,9479517E-002
27/08/2025 09:51:55.2330	-2,6480783E+001	-1,9486813E-002
27/08/2025 09:51:57.5330	-2,6487783E+001	-1,9504957E-002
27/08/2025 09:51:59.8330	-2,6485235E+001	-1,9527763E-002
27/08/2025 09:52:02.1330	-2,6483328E+001	-1,9545257E-002
27/08/2025 09:52:04.4330	-2,6483963E+001	-1,9571157E-002
27/08/2025 09:52:06.7330	-2,6479511E+001	-1,9577576E-002
27/08/2025 09:52:09.0330	-2,6480783E+001	-1,9596292E-002
27/08/2025 09:52:11.3330	-2,6484600E+001	-1,9618258E-002
27/08/2025 09:52:13.6330	-2,6487783E+001	-1,9645570E-002
27/08/2025 09:52:15.9330	-2,6480783E+001	-1,9656839E-002
27/08/2025 09:52:18.1332	5,3014778E+001	1,2844980E-002
27/08/2025 09:52:20.4332	5,3013508E+001	1,7543649E-002
27/08/2025 09:52:22.7332	5,3019230E+001	1,9838262E-002
27/08/2025 09:52:25.0332	5,3013508E+001	2,1091899E-002
27/08/2025 09:52:27.3332	5,3014778E+001	2,1769103E-002
27/08/2025 09:52:29.6332	5,3016685E+001	2,2166722E-002
27/08/2025 09:52:31.9332	5,3015415E+001	2,2354206E-002
27/08/2025 09:52:34.2332	5,3012230E+001	2,2429230E-002
27/08/2025 09:52:36.5332	5,3012230E+001	2,2485001E-002
27/08/2025 09:52:38.8332	5,3019871E+001	2,2529121E-002
27/08/2025 09:52:41.1332	5,3014778E+001	2,2552118E-002
27/08/2025 09:52:43.4332	5,3017323E+001	2,2547917E-002
27/08/2025 09:52:45.7332	5,3010323E+001	2,2576567E-002
27/08/2025 09:52:48.0332	5,3017960E+001	2,2597957E-002
27/08/2025 09:52:50.3332	5,3012867E+001	2,2637801E-002
27/08/2025 09:52:52.6332	5,3010960E+001	2,2662017E-002
27/08/2025 09:52:54.9332	5,3013508E+001	2,2688720E-002
27/08/2025 09:52:57.2332	5,3014778E+001	2,2725239E-002
27/08/2025 09:52:59.5332	5,3017323E+001	2,2778336E-002
27/08/2025 09:53:01.8332	5,3011597E+001	2,2820776E-002
27/08/2025 09:53:04.1332	5,3012867E+001	2,2835827E-002
27/08/2025 09:53:06.4332	5,3019871E+001	2,2880368E-002
27/08/2025 09:53:08.7332	5,3017960E+001	2,2927390E-002
27/08/2025 09:53:11.0332	5,3010960E+001	2,2969604E-002
27/08/2025 09:53:13.3332	5,3012230E+001	2,2989351E-002
27/08/2025 09:53:15.6332	5,3014145E+001	2,3024457E-002
27/08/2025 09:53:17.9332	5,3010323E+001	2,3073353E-002
27/08/2025 09:53:20.2332	5,3015415E+001	2,3123700E-002
27/08/2025 09:53:22.5332	5,3012867E+001	2,3156781E-002
27/08/2025 09:53:24.8332	5,3014778E+001	2,3187036E-002
27/08/2025 09:53:27.1332	5,3014145E+001	2,3224548E-002
27/08/2025 09:53:29.4332	5,3012230E+001	2,3260340E-002
27/08/2025 09:53:31.7332	5,3016685E+001	2,3309769E-002
27/08/2025 09:53:34.0332	5,3014778E+001	2,3333186E-002
27/08/2025 09:53:36.3332	5,3009686E+001	2,3366954E-002
27/08/2025 09:53:38.6332	5,3013508E+001	2,3419289E-002
27/08/2025 09:53:40.9332	5,3017323E+001	2,3469940E-002
27/08/2025 09:53:43.2332	5,3012230E+001	2,3504281E-002
27/08/2025 09:53:45.5332	5,3015415E+001	2,3532817E-002
27/08/2025 09:53:47.8332	5,3015415E+001	2,3578886E-002
27/08/2025 09:53:50.1332	5,3019230E+001	2,3615366E-002
27/08/2025 09:53:52.4332	5,3021141E+001	2,3660365E-002
27/08/2025 09:53:54.7332	5,3016685E+001	2,3676679E-002
27/08/2025 09:53:57.0332	5,3015415E+001	2,3719804E-002
27/08/2025 09:53:59.3332	5,3010323E+001	2,3764612E-002
27/08/2025 09:54:01.6332	5,3016052E+001	2,3816565E-002
27/08/2025 09:54:03.9332	5,3017323E+001	2,3840860E-002
27/08/2025 09:54:06.2332	5,3016052E+001	2,3865459E-002
27/08/2025 09:54:08.5332	5,3021778E+001	2,3919934E-002
27/08/2025 09:54:10.8332	5,3017960E+001	2,3961876E-002
27/08/2025 09:54:13.1332	5,3006504E+001	2,4003170E-002
27/08/2025 09:54:15.4332	5,3015415E+001	2,4012873E-002
27/08/2025 09:54:17.6336	3,5230771E-003	3,6175891E-003
27/08/2025 09:54:19.9336	1,1159477E-002	-2,2369011E-004
27/08/2025 09:54:22.2336	9,2503773E-003	-1,9696045E-003
27/08/2025 09:54:24.5336	1,4341311E-002	-2,8888024E-003
27/08/2025 09:54:26.8336	9,2503773E-003	-3,3944128E-003
27/08/2025 09:54:29.1336	4,1594426E-003	-3,6536737E-003
27/08/2025 09:54:31.4336	7,9776440E-003	-3,7817571E-003
27/08/2025 09:54:33.7336	7,3412773E-003	-3,8351221E-003
27/08/2025 09:54:36.0336	9,2503773E-003	-3,8511658E-003
27/08/2025 09:54:38.3336	2,8867100E-003	-3,8358094E-003
27/08/2025 09:54:40.6336	1,0523110E-002	-3,8193455E-003
27/08/2025 09:54:42.9336	5,4321769E-003	-3,8109417E-003
27/08/2025 09:54:45.2336	2,2503431E-003	-3,7988324E-003
27/08/2025 09:54:47.5336	1,1159477E-002	-3,7805347E-003
27/08/2025 09:54:49.8336	8,6140092E-003	-3,7767910E-003
27/08/2025 09:54:52.1336	6,7049102E-003	-3,7775552E-003
27/08/2025 09:54:54.4336	1,0523110E-002	-3,7651786E-003
27/08/2025 09:54:56.7336	9,8867435E-003	-3,7695332E-003
27/08/2025 09:54:59.0336	5,4321769E-003	-3,7696478E-003
27/08/2025 09:55:01.3336	1,0523110E-002	-3,7707940E-003
27/08/2025 09:55:03.6336	6,0685435E-003	-3,7648347E-003
27/08/2025 09:55:05.9336	9,8867435E-003	-3,7757982E-003
27/08/2025 09:55:08.2336	9,2503773E-003	-3,7746520E-003
27/08/2025 09:55:10.5336	6,7049102E-003	-3,7688457E-003
27/08/2025 09:55:12.8336	1,0523110E-002	-3,7694569E-003
27/08/2025 09:55:15.1336	7,3412773E-003	-3,7728567E-003
27/08/2025 09:55:17.4336	5,4321769E-003	-3,7709468E-003
27/08/2025 09:55:19.7336	6,7049102E-003	-3,7713668E-003
27/08/2025 09:55:22.0336	4,7958097E-003	-3,7727421E-003
27/08/2025 09:55:24.3336	6,7049102E-003	-3,7665537E-003
27/08/2025 09:55:26.6336	6,7049102E-003	-3,7659807E-003
27/08/2025 09:55:28.9336	6,0685435E-003	-3,7649113E-003
27/08/2025 09:55:31.2336	1,1795843E-002	-3,7704501E-003
27/08/2025 09:55:33.5336	4,1594426E-003	-3,7695717E-003
27/08/2025 09:55:35.8336	1,4341311E-002	-3,7647584E-003
27/08/2025 09:55:38.1336	6,7049102E-003	-3,7719782E-003
27/08/2025 09:55:40.4336	1,3704944E-002	-3,7679288E-003
27/08/2025 09:55:42.7336	1,3068578E-002	-3,7654841E-003
27/08/2025 09:55:45.0336	4,7958097E-003	-3,7744611E-003
27/08/2025 09:55:47.3336	1,0523110E-002	-3,7753778E-003
27/08/2025 09:55:49.6336	6,0685435E-003	-3,7637651E-003
27/08/2025 09:55:51.9336	8,6140092E-003	-3,7726273E-003
27/08/2025 09:55:54.2336	3,5230771E-003	-3,7753778E-003
27/08/2025 09:55:56.5336	9,2503773E-003	-3,7714432E-003
27/08/2025 09:55:58.8336	7,3412773E-003	-3,7705265E-003
27/08/2025 09:56:01.1336	1,2432210E-002	-3,7773643E-003
27/08/2025 09:56:03.4336	1,1795843E-002	-3,7733915E-003
27/08/2025 09:56:05.7336	7,3412773E-003	-3,7681963E-003
27/08/2025 09:56:08.0336	7,3412773E-003	-3,7811077E-003
27/08/2025 09:56:10.3336	1,2432210E-002	-3,7801147E-003
27/08/2025 09:56:12.6336	7,9776440E-003	-3,7717107E-003
27/08/2025 09:56:14.9336	7,3412773E-003	-3,7761801E-003
27/08/2025 09:56:17.1338	-5,2973995E+001	-2,2137687E-002
27/08/2025 09:56:19.4338	-5,2966362E+001	-2,7492769E-002
27/08/2025 09:56:21.7338	-5,2976543E+001	-2,9585842E-002
27/08/2025 09:56:24.0338	-5,2978451E+001	-3,0692829E-002
27/08/2025 09:56:26.3338	-5,2986092E+001	-3,1301271E-002
27/08/2025 09:56:28.6338	-5,2977814E+001	-3,1629521E-002
27/08/2025 09:56:30.9338	-5,2978451E+001	-3,1830683E-002
27/08/2025 09:56:33.2338	-5,2977814E+001	-3,1939894E-002
27/08/2025 09:56:35.5338	-5,2973995E+001	-3,2008041E-002
27/08/2025 09:56:37.8338	-5,2972088E+001	-3,2028023E-002
27/08/2025 09:56:40.1338	-5,2975906E+001	-3,2042231E-002
27/08/2025 09:56:42.4338	-5,2978451E+001	-3,2079626E-002
27/08/2025 09:56:44.7338	-5,2975266E+001	-3,2104917E-002
27/08/2025 09:56:47.0338	-5,2979088E+001	-3,2137081E-002
27/08/2025 09:56:49.3338	-5,2971451E+001	-3,2146629E-002
27/08/2025 09:56:51.6338	-5,2974636E+001	-3,2191288E-002
27/08/2025 09:56:53.9338	-5,2980999E+001	-3,2236211E-002
27/08/2025 09:56:56.2338	-5,2970818E+001	-3,2285031E-002
27/08/2025 09:56:58.5338	-5,2978451E+001	-3,2306917E-002
27/08/2025 09:57:00.8338	-5,2984814E+001	-3,2342557E-002
27/08/2025 09:57:03.1338	-5,2978451E+001	-3,2390803E-002
27/08/2025 09:57:05.4338	-5,2973995E+001	-3,2430720E-002
27/08/2025 09:57:07.7338	-5,2977814E+001	-3,2471403E-002
27/08/2025 09:57:10.0338	-5,2979088E+001	-3,2482293E-002
27/08/2025 09:57:12.3338	-5,2977180E+001	-3,2535769E-002
27/08/2025 09:57:14.6338	-5,2979088E+001	-3,2584172E-002
27/08/2025 09:57:16.9338	-5,2973995E+001	-3,2627638E-002
27/08/2025 09:57:19.2338	-5,2976543E+001	-3,2643493E-002
27/08/2025 09:57:21.5338	-5,2977814E+001	-3,2672565E-002
27/08/2025 09:57:23.8338	-5,2976543E+001	-3,2728985E-002
27/08/2025 09:57:26.1338	-5,2979088E+001	-3,2764509E-002
27/08/2025 09:57:28.4338	-5,2983543E+001	-3,2801602E-002
27/08/2025 09:57:30.7338	-5,2976543E+001	-3,2835677E-002
27/08/2025 09:57:33.0338	-5,2979729E+001	-3,2878842E-002
27/08/2025 09:57:35.3338	-5,2981636E+001	-3,2927584E-002
27/08/2025 09:57:37.6338	-5,2979088E+001	-3,2974418E-002
27/08/2025 09:57:39.9338	-5,2975266E+001	-3,2986298E-002
27/08/2025 09:57:42.2338	-5,2980358E+001	-3,3020902E-002
27/08/2025 09:57:44.5338	-5,2977814E+001	-3,3080801E-002
27/08/2025 09:57:46.8338	-5,2975266E+001	-3,3111516E-002
27/08/2025 09:57:49.1338	-5,2973358E+001	-3,3137150E-002
27/08/2025 09:57:51.4338	-5,2979729E+001	-3,3172943E-002
27/08/2025 09:57:53.7338	-5,2975906E+001	-3,3224013E-002
27/08/2025 09:57:56.0338	-5,2976543E+001	-3,3263169E-002
27/08/2025 09:57:58.3338	-5,2973358E+001	-3,3306025E-002
27/08/2025 09:58:00.6338	-5,2972725E+001	-3,3336319E-002
27/08/2025 09:58:02.9338	-5,2976543E+001	-3,3371463E-002
27/08/2025 09:58:05.2338	-5,2980999E+001	-3,3420362E-002
27/08/2025 09:58:07.5338	-5,2980358E+001	-3,3468910E-002
27/08/2025 09:58:09.8338	-5,2976543E+001	-3,3492748E-002
27/08/2025 09:58:12.1338	-5,2982906E+001	-3,3524528E-002
27/08/2025 09:58:14.4338	-5,2979729E+001	-3,3578277E-002
27/08/2025 09:58:16.7338	-5,2976543E+001	-3,3625912E-002
27/08/2025 09:58:18.9340	7,9504181E+001	2,4038695E-002
27/08/2025 09:58:21.2340	7,9514992E+001	2,9978625E-002
27/08/2025 09:58:23.5340	7,9509262E+001	3,3093344E-002
27/08/2025 09:58:25.8340	7,9513084E+001	3,4749910E-002
27/08/2025 09:58:28.1340	7,9510536E+001	3,5662081E-002
27/08/2025 09:58:30.4340	7,9507347E+001	3,6196265E-002
27/08/2025 09:58:32.7340	7,9508629E+001	3,6452699E-002
27/08/2025 09:58:35.0340	7,9503532E+001	3,6565885E-002
27/08/2025 09:58:37.3340	7,9510536E+001	3,6591440E-002
27/08/2025 09:58:39.6340	7,9509262E+001	3,6643848E-002
27/08/2025 09:58:41.9340	7,9514359E+001	3,6659434E-002
27/08/2025 09:58:44.2340	7,9509903E+001	3,6704510E-002
27/08/2025 09:58:46.5340	7,9518806E+001	3,6719866E-002
27/08/2025 09:58:48.8340	7,9506088E+001	3,6751762E-002
27/08/2025 09:58:51.1340	7,9518173E+001	3,6802188E-002
27/08/2025 09:58:53.4340	7,9506088E+001	3,6863841E-002
27/08/2025 09:58:55.7340	7,9514359E+001	3,6903299E-002
27/08/2025 09:58:58.0340	7,9511177E+001	3,6935735E-002
27/08/2025 09:59:00.3340	7,9509903E+001	3,7018359E-002
27/08/2025 09:59:02.6340	7,9510536E+001	3,7088227E-002
27/08/2025 09:59:04.9340	7,9508629E+001	3,7147857E-002
27/08/2025 09:59:07.2340	7,9507347E+001	3,7176583E-002
27/08/2025 09:59:09.5340	7,9511810E+001	3,7251797E-002
27/08/2025 09:59:11.8340	7,9511810E+001	3,7326135E-002
27/08/2025 09:59:14.1340	7,9514359E+001	3,7379116E-002
27/08/2025 09:59:16.4339	7,9506721E+001	3,7421789E-002
27/08/2025 09:59:18.7340	7,9504814E+001	3,7471674E-002
27/08/2025 09:59:21.0339	7,9508629E+001	3,7543219E-002
27/08/2025 09:59:23.3340	7,9513084E+001	3,7609536E-002
27/08/2025 09:59:25.6339	7,9510536E+001	3,7668135E-002
27/08/2025 09:59:27.9339	7,9506721E+001	3,7706565E-002
27/08/2025 09:59:30.2339	7,9509903E+001	3,7764054E-002
27/08/2025 09:59:32.5339	7,9511177E+001	3,7843585E-002
27/08/2025 09:59:34.8339	7,9509262E+001	3,7897065E-002
27/08/2025 09:59:37.1339	7,9507996E+001	3,7936602E-002
27/08/2025 09:59:39.4339	7,9516266E+001	3,7989166E-002
27/08/2025 09:59:41.7339	7,9515625E+001	3,8074501E-002
27/08/2025 09:59:44.0339	7,9517540E+001	3,8134668E-002
27/08/2025 09:59:46.3339	7,9509262E+001	3,8171031E-002
27/08/2025 09:59:48.6339	7,9513084E+001	3,8231961E-002
27/08/2025 09:59:50.9339	7,9511177E+001	3,8288154E-002
27/08/2025 09:59:53.2339	7,9504814E+001	3,8356949E-002
27/08/2025 09:59:55.5339	7,9506088E+001	3,8405806E-002
27/08/2025 09:59:57.8339	7,9509903E+001	3,8454819E-002
27/08/2025 10:00:00.1339	7,9506088E+001	3,8511313E-002
27/08/2025 10:00:02.4339	7,9517540E+001	3,8601313E-002
27/08/2025 10:00:04.7339	7,9514992E+001	3,8669653E-002
27/08/2025 10:00:07.0339	7,9514992E+001	3,8693566E-002
27/08/2025 10:00:09.3339	7,9503532E+001	3,8750865E-002
27/08/2025 10:00:11.6339	7,9506088E+001	3,8824476E-002
27/08/2025 10:00:13.9339	7,9518173E+001	3,8894001E-002
27/08/2025 10:00:16.2339	7,9514359E+001	3,8915887E-002
27/08/2025 10:00:18.4343	1,0523110E-002	5,6127943E-003
27/08/2025 10:00:20.7343	9,8867435E-003	1,4410119E-003
27/08/2025 10:00:23.0343	1,4977678E-002	-6,5206084E-004
27/08/2025 10:00:25.3343	5,4321769E-003	-1,7840307E-003
27/08/2025 10:00:27.6343	6,7049102E-003	-2,3799068E-003
27/08/2025 10:00:29.9343	4,1594426E-003	-2,6921507E-003
27/08/2025 10:00:32.2343	1,5614044E-002	-2,8322670E-003
27/08/2025 10:00:34.5343	4,7958097E-003	-2,8838366E-003
27/08/2025 10:00:36.8343	1,0523110E-002	-2,8768077E-003
27/08/2025 10:00:39.1343	1,3068578E-002	-2,8626355E-003
27/08/2025 10:00:41.4343	6,0685435E-003	-2,8462480E-003
27/08/2025 10:00:43.7343	9,2503773E-003	-2,8214946E-003
27/08/2025 10:00:46.0343	7,9776440E-003	-2,7992243E-003
27/08/2025 10:00:48.3343	8,6140092E-003	-2,7933798E-003
27/08/2025 10:00:50.6343	9,8867435E-003	-2,7891779E-003
27/08/2025 10:00:52.9343	9,8867435E-003	-2,7757315E-003
27/08/2025 10:00:55.2343	9,2503773E-003	-2,7777560E-003
27/08/2025 10:00:57.5343	9,8867435E-003	-2,7818815E-003
27/08/2025 10:00:59.8343	4,1594426E-003	-2,7782910E-003
27/08/2025 10:01:02.1343	1,1159477E-002	-2,7757315E-003
27/08/2025 10:01:04.4343	1,0523110E-002	-2,7829895E-003
27/08/2025 10:01:06.7343	4,7958097E-003	-2,7809266E-003
27/08/2025 10:01:09.0343	1,6886778E-002	-2,7714532E-003
27/08/2025 10:01:11.3343	-2,9512335E-004	-2,7839828E-003
27/08/2025 10:01:13.6343	7,3412773E-003	-2,7876499E-003
27/08/2025 10:01:15.9343	4,7958097E-003	-2,7811558E-003
27/08/2025 10:01:18.2343	1,3704944E-002	-2,7816144E-003
27/08/2025 10:01:20.5343	7,3412773E-003	-2,7821872E-003
27/08/2025 10:01:22.8343	8,6140092E-003	-2,7788258E-003
27/08/2025 10:01:25.1343	7,3412773E-003	-2,7800864E-003
27/08/2025 10:01:27.4343	1,2432210E-002	-2,7793986E-003
27/08/2025 10:01:29.7343	7,3412773E-003	-2,7827602E-003
27/08/2025 10:01:32.0343	6,0685435E-003	-2,7792840E-003
27/08/2025 10:01:34.3343	1,1795843E-002	-2,7795134E-003
27/08/2025 10:01:36.6343	7,9776440E-003	-2,7864657E-003
27/08/2025 10:01:38.9343	9,8867435E-003	-2,7868475E-003
27/08/2025 10:01:41.2343	7,9776440E-003	-2,7850140E-003
27/08/2025 10:01:43.5343	6,0685435E-003	-2,7892543E-003
27/08/2025 10:01:45.8343	7,9776440E-003	-2,7868475E-003
27/08/2025 10:01:48.1343	9,8867435E-003	-2,7792840E-003
27/08/2025 10:01:50.4343	8,6140092E-003	-2,7802773E-003
27/08/2025 10:01:52.7343	7,9776440E-003	-2,7803539E-003
27/08/2025 10:01:55.0343	4,1594426E-003	-2,7828747E-003
27/08/2025 10:01:57.3343	1,1159477E-002	-2,7789020E-003
27/08/2025 10:01:59.6343	3,5230771E-003	-2,7841353E-003
27/08/2025 10:02:01.9343	1,6886778E-002	-2,7735159E-003
27/08/2025 10:02:04.2343	1,2432210E-002	-2,7823402E-003
27/08/2025 10:02:06.5343	7,9776440E-003	-2,7800482E-003
27/08/2025 10:02:08.8343	1,4977678E-002	-2,7795515E-003
27/08/2025 10:02:11.1343	8,6140092E-003	-2,7743946E-003
27/08/2025 10:02:13.4343	1,2432210E-002	-2,7803155E-003
27/08/2025 10:02:15.7343	1,1159477E-002	-2,7810030E-003
27/08/2025 10:02:17.9345	-7,9472305E+001	-3,4577809E-002
27/08/2025 10:02:20.2345	-7,9469749E+001	-3,9677687E-002
27/08/2025 10:02:22.5345	-7,9475487E+001	-4,2176709E-002
27/08/2025 10:02:24.8345	-7,9474213E+001	-4,3551169E-002
27/08/2025 10:02:27.1345	-7,9482483E+001	-4,4328611E-002
27/08/2025 10:02:29.4345	-7,9474213E+001	-4,4712327E-002
27/08/2025 10:02:31.7345	-7,9472939E+001	-4,4935681E-002
27/08/2025 10:02:34.0345	-7,9477394E+001	-4,5077592E-002
27/08/2025 10:02:36.3345	-7,9467216E+001	-4,5167897E-002
27/08/2025 10:02:38.6345	-7,9471664E+001	-4,5194481E-002
27/08/2025 10:02:40.9345	-7,9477394E+001	-4,5213733E-002
27/08/2025 10:02:43.2345	-7,9476120E+001	-4,5270536E-002
27/08/2025 10:02:45.5345	-7,9470398E+001	-4,5309041E-002
27/08/2025 10:02:47.8345	-7,9473579E+001	-4,5360610E-002
27/08/2025 10:02:50.1345	-7,9480576E+001	-4,5383338E-002
27/08/2025 10:02:52.4345	-7,9472305E+001	-4,5442436E-002
27/08/2025 10:02:54.7345	-7,9469124E+001	-4,5508176E-002
27/08/2025 10:02:57.0345	-7,9471031E+001	-4,5592826E-002
27/08/2025 10:02:59.3345	-7,9474846E+001	-4,5626633E-002
27/08/2025 10:03:01.6345	-7,9469749E+001	-4,5661282E-002
27/08/2025 10:03:03.9345	-7,9471031E+001	-4,5743331E-002
27/08/2025 10:03:06.2345	-7,9471664E+001	-4,5802888E-002
27/08/2025 10:03:08.5345	-7,9471664E+001	-4,5860492E-002
27/08/2025 10:03:10.8345	-7,9477394E+001	-4,5886353E-002
27/08/2025 10:03:13.1345	-7,9467216E+001	-4,5958091E-002
27/08/2025 10:03:15.4345	-7,9473579E+001	-4,6031438E-002
27/08/2025 10:03:17.7345	-7,9479301E+001	-4,6112612E-002
27/08/2025 10:03:20.0345	-7,9474213E+001	-4,6152487E-002
27/08/2025 10:03:22.3345	-7,9473579E+001	-4,6190802E-002
27/08/2025 10:03:24.6345	-7,9477394E+001	-4,6268083E-002
27/08/2025 10:03:26.9345	-7,9476761E+001	-4,6329696E-002
27/08/2025 10:03:29.2345	-7,9474846E+001	-4,6385009E-002
27/08/2025 10:03:31.5345	-7,9470398E+001	-4,6401970E-002
27/08/2025 10:03:33.8345	-7,9463394E+001	-4,6489678E-002
27/08/2025 10:03:36.1345	-7,9471664E+001	-4,6559162E-002
27/08/2025 10:03:38.4345	-7,9472305E+001	-4,6627425E-002
27/08/2025 10:03:40.7345	-7,9469124E+001	-4,6655312E-002
27/08/2025 10:03:43.0345	-7,9470398E+001	-4,6712037E-002
27/08/2025 10:03:45.3345	-7,9476120E+001	-4,6787675E-002
27/08/2025 10:03:47.6345	-7,9474846E+001	-4,6840504E-002
27/08/2025 10:03:49.9345	-7,9472305E+001	-4,6887718E-002
27/08/2025 10:03:52.2345	-7,9474213E+001	-4,6927523E-002
27/08/2025 10:03:54.5345	-7,9469749E+001	-4,6995100E-002
27/08/2025 10:03:56.8345	-7,9471664E+001	-4,7067564E-002
27/08/2025 10:03:59.1345	-7,9469749E+001	-4,7135483E-002
27/08/2025 10:04:01.4345	-7,9474213E+001	-4,7158174E-002
27/08/2025 10:04:03.7345	-7,9465935E+001	-4,7227047E-002
27/08/2025 10:04:06.0345	-7,9470398E+001	-4,7298439E-002
27/08/2025 10:04:08.3345	-7,9474846E+001	-4,7354482E-002
27/08/2025 10:04:10.6345	-7,9469749E+001	-4,7393788E-002
27/08/2025 10:04:12.9345	-7,9465302E+001	-4,7453802E-002
27/08/2025 10:04:15.2345	-7,9467842E+001	-4,7530733E-002
27/08/2025 10:04:17.4347	1,0601585E+002	2,1665810E-002
27/08/2025 10:04:19.7347	1,0601140E+002	3,6697026E-002
27/08/2025 10:04:22.0347	1,0601457E+002	4,3253496E-002
27/08/2025 10:04:24.3347	1,0601839E+002	4,6798844E-002
27/08/2025 10:04:26.6347	1,0601776E+002	4,8672341E-002
27/08/2025 10:04:28.9347	1,0601585E+002	4,9709193E-002
27/08/2025 10:04:31.2347	1,0601331E+002	5,0299685E-002
27/08/2025 10:04:33.5347	1,0600949E+002	5,0583240E-002
27/08/2025 10:04:35.8347	1,0601648E+002	5,0690394E-002
27/08/2025 10:04:38.1347	1,0601140E+002	5,0709911E-002
27/08/2025 10:04:40.4347	1,0601394E+002	5,0768204E-002
27/08/2025 10:04:42.7347	1,0601713E+002	5,0808508E-002
27/08/2025 10:04:45.0347	1,0601648E+002	5,0874092E-002
27/08/2025 10:04:47.3347	1,0601904E+002	5,0883949E-002
27/08/2025 10:04:49.6347	1,0600822E+002	5,0928909E-002
27/08/2025 10:04:51.9347	1,0602094E+002	5,1022310E-002
27/08/2025 10:04:54.2347	1,0601522E+002	5,1094200E-002
27/08/2025 10:04:56.5347	1,0601203E+002	5,1152989E-002
27/08/2025 10:04:58.8347	1,0601713E+002	5,1197913E-002
27/08/2025 10:05:01.1347	1,0601140E+002	5,1300287E-002
27/08/2025 10:05:03.4347	1,0600949E+002	5,1380277E-002
27/08/2025 10:05:05.7347	1,0601331E+002	5,1466569E-002
27/08/2025 10:05:08.0347	1,0601331E+002	5,1516037E-002
27/08/2025 10:05:10.3347	1,0601585E+002	5,1588543E-002
27/08/2025 10:05:12.6347	1,0601076E+002	5,1691107E-002
27/08/2025 10:05:14.9347	1,0601648E+002	5,1791191E-002
27/08/2025 10:05:17.2347	1,0601012E+002	5,1841766E-002
27/08/2025 10:05:19.5347	1,0601457E+002	5,1894408E-002
27/08/2025 10:05:21.8347	1,0601203E+002	5,2011982E-002
27/08/2025 10:05:24.1347	1,0600949E+002	5,2109547E-002
27/08/2025 10:05:26.4347	1,0601076E+002	5,2166808E-002
27/08/2025 10:05:28.7347	1,0600949E+002	5,2223533E-002
27/08/2025 10:05:31.0347	1,0601331E+002	5,2318346E-002
27/08/2025 10:05:33.3347	1,0600758E+002	5,2414760E-002
27/08/2025 10:05:35.6347	1,0600822E+002	5,2476451E-002
27/08/2025 10:05:37.9347	1,0600758E+002	5,2530393E-002
27/08/2025 10:05:40.2347	1,0601266E+002	5,2613057E-002
27/08/2025 10:05:42.5347	1,0601266E+002	5,2709740E-002
27/08/2025 10:05:44.8347	1,0600694E+002	5,2814752E-002
27/08/2025 10:05:47.1347	1,0601585E+002	5,2877281E-002
27/08/2025 10:05:49.4347	1,0600822E+002	5,2935764E-002
27/08/2025 10:05:51.7347	1,0600758E+002	5,3012967E-002
27/08/2025 10:05:54.0347	1,0600949E+002	5,3120613E-002
27/08/2025 10:05:56.3347	1,0601331E+002	5,3184103E-002
27/08/2025 10:05:58.6347	1,0600949E+002	5,3235978E-002
27/08/2025 10:06:00.9347	1,0601266E+002	5,3313982E-002
27/08/2025 10:06:03.2347	1,0601648E+002	5,3416546E-002
27/08/2025 10:06:05.5347	1,0601203E+002	5,3506393E-002
27/08/2025 10:06:07.8347	1,0601967E+002	5,3558730E-002
27/08/2025 10:06:10.1347	1,0601140E+002	5,3640243E-002
27/08/2025 10:06:12.4347	1,0600885E+002	5,3725049E-002
27/08/2025 10:06:14.7347	1,0601394E+002	5,3830594E-002
27/08/2025 10:06:17.0347	1,0601904E+002	5,3872652E-002
27/08/2025 10:06:19.2351	8,6140092E-003	6,9354950E-003
27/08/2025 10:06:21.5351	4,7958097E-003	2,6652338E-003
27/08/2025 10:06:23.8351	9,7761012E-004	4,1504603E-004
27/08/2025 10:06:26.1351	8,6140092E-003	-7,9294108E-004
27/08/2025 10:06:28.4351	6,0685435E-003	-1,4271316E-003
27/08/2025 10:06:30.7351	9,2503773E-003	-1,7507587E-003
27/08/2025 10:06:33.0351	1,0523110E-002	-1,8990880E-003
27/08/2025 10:06:35.3351	1,0523110E-002	-1,9456533E-003
27/08/2025 10:06:37.6351	6,0685435E-003	-1,9278142E-003
27/08/2025 10:06:39.9351	6,7049102E-003	-1,9013418E-003
27/08/2025 10:06:42.2351	4,1594426E-003	-1,8793006E-003
27/08/2025 10:06:44.5351	7,9776440E-003	-1,8451120E-003
27/08/2025 10:06:46.8351	2,8867100E-003	-1,8187542E-003
27/08/2025 10:06:49.1351	4,7958097E-003	-1,8119165E-003
27/08/2025 10:06:51.4351	1,0523110E-002	-1,8026339E-003
27/08/2025 10:06:53.7351	1,0523110E-002	-1,7927402E-003
27/08/2025 10:06:56.0351	1,0523110E-002	-1,7953760E-003
27/08/2025 10:06:58.3351	1,2432210E-002	-1,7975152E-003
27/08/2025 10:07:00.6351	1,1159477E-002	-1,7896461E-003
27/08/2025 10:07:02.9351	1,1159477E-002	-1,7858642E-003
27/08/2025 10:07:05.2351	9,8867435E-003	-1,7962164E-003
27/08/2025 10:07:07.5351	1,2432210E-002	-1,7952232E-003
27/08/2025 10:07:09.8351	5,4321769E-003	-1,7852531E-003
27/08/2025 10:07:12.1351	1,0523110E-002	-1,7964074E-003
27/08/2025 10:07:14.4351	1,3704944E-002	-1,7859789E-003
27/08/2025 10:07:16.7351	4,7958097E-003	-1,7871249E-003
27/08/2025 10:07:19.0351	6,7049102E-003	-1,7930458E-003
27/08/2025 10:07:21.3351	8,6140092E-003	-1,7894933E-003
27/08/2025 10:07:23.6351	9,8867435E-003	-1,7906774E-003
27/08/2025 10:07:25.9351	1,6139771E-003	-1,7878506E-003
27/08/2025 10:07:28.2351	1,3068578E-002	-1,8006094E-003
27/08/2025 10:07:30.5351	7,9776440E-003	-1,7938481E-003
27/08/2025 10:07:32.8351	4,7958097E-003	-1,7956817E-003
27/08/2025 10:07:35.1351	7,3412773E-003	-1,7935042E-003
27/08/2025 10:07:37.4351	8,6140092E-003	-1,7951085E-003
27/08/2025 10:07:39.7351	7,3412773E-003	-1,7883856E-003
27/08/2025 10:07:42.0351	1,3704944E-002	-1,7917471E-003
27/08/2025 10:07:44.3351	7,3412773E-003	-1,7950705E-003
27/08/2025 10:07:46.6351	5,4321769E-003	-1,7940007E-003
27/08/2025 10:07:48.9351	9,2503773E-003	-1,7928549E-003
27/08/2025 10:07:51.2351	9,8867435E-003	-1,7936188E-003
27/08/2025 10:07:53.5351	1,0523110E-002	-1,7845273E-003
27/08/2025 10:07:55.8351	7,9776440E-003	-1,7898370E-003
27/08/2025 10:07:58.1351	1,1795843E-002	-1,7908685E-003
27/08/2025 10:08:00.4351	1,3068578E-002	-1,7905629E-003
27/08/2025 10:08:02.7351	9,2503773E-003	-1,7910594E-003
27/08/2025 10:08:05.0351	1,1795843E-002	-1,7940007E-003
27/08/2025 10:08:07.3351	9,8867435E-003	-1,7957197E-003
27/08/2025 10:08:09.6351	9,2503773E-003	-1,7887292E-003
27/08/2025 10:08:11.9351	6,7049102E-003	-1,7925493E-003
27/08/2025 10:08:14.2351	7,3412773E-003	-1,7901808E-003
27/08/2025 10:08:16.5351	8,6140092E-003	-1,7862080E-003
27/08/2025 10:08:18.7353	-1,0597251E+002	-4,7245305E-002
27/08/2025 10:08:21.0353	-1,0597570E+002	-5,2369025E-002
27/08/2025 10:08:23.3353	-1,0597825E+002	-5,5056863E-002
27/08/2025 10:08:25.6353	-1,0597314E+002	-5,6556772E-002
27/08/2025 10:08:27.9353	-1,0597633E+002	-5,7402626E-002
27/08/2025 10:08:30.2353	-1,0597251E+002	-5,7864651E-002
27/08/2025 10:08:32.5353	-1,0597888E+002	-5,8103628E-002
27/08/2025 10:08:34.8353	-1,0597570E+002	-5,8239464E-002
27/08/2025 10:08:37.1353	-1,0597633E+002	-5,8342416E-002
27/08/2025 10:08:39.4353	-1,0597314E+002	-5,8410257E-002
27/08/2025 10:08:41.7353	-1,0598079E+002	-5,8434553E-002
27/08/2025 10:08:44.0353	-1,0597124E+002	-5,8482338E-002
27/08/2025 10:08:46.3353	-1,0596679E+002	-5,8537651E-002
27/08/2025 10:08:48.6353	-1,0597443E+002	-5,8629368E-002
27/08/2025 10:08:50.9353	-1,0597761E+002	-5,8669824E-002
27/08/2025 10:08:53.2353	-1,0597314E+002	-5,8710545E-002
27/08/2025 10:08:55.5353	-1,0597251E+002	-5,8784459E-002
27/08/2025 10:08:57.8353	-1,0597633E+002	-5,8899440E-002
27/08/2025 10:09:00.1353	-1,0597314E+002	-5,8983516E-002
27/08/2025 10:09:02.4353	-1,0598079E+002	-5,9037227E-002
27/08/2025 10:09:04.7353	-1,0596933E+002	-5,9117485E-002
27/08/2025 10:09:07.0353	-1,0597443E+002	-5,9189301E-002
27/08/2025 10:09:09.3353	-1,0597507E+002	-5,9287854E-002
27/08/2025 10:09:11.6353	-1,0597443E+002	-5,9347980E-002
27/08/2025 10:09:13.9353	-1,0597379E+002	-5,9406888E-002
27/08/2025 10:09:16.2353	-1,0597251E+002	-5,9478622E-002
27/08/2025 10:09:18.5353	-1,0597060E+002	-5,9607588E-002
27/08/2025 10:09:20.8353	-1,0597060E+002	-5,9684064E-002
27/08/2025 10:09:23.1353	-1,0597189E+002	-5,9712142E-002
27/08/2025 10:09:25.4353	-1,0597124E+002	-5,9800383E-002
27/08/2025 10:09:27.7353	-1,0597314E+002	-5,9889194E-002
27/08/2025 10:09:30.0353	-1,0597314E+002	-5,9989925E-002
27/08/2025 10:09:32.3353	-1,0597697E+002	-6,0020067E-002
27/08/2025 10:09:34.6353	-1,0597314E+002	-6,0092606E-002
27/08/2025 10:09:36.9353	-1,0597507E+002	-6,0183521E-002
27/08/2025 10:09:39.2353	-1,0596870E+002	-6,0292121E-002
27/08/2025 10:09:41.5353	-1,0597697E+002	-6,0367569E-002
27/08/2025 10:09:43.8353	-1,0596997E+002	-6,0422879E-002
27/08/2025 10:09:46.1353	-1,0597251E+002	-6,0510166E-002
27/08/2025 10:09:48.4353	-1,0597251E+002	-6,0582709E-002
27/08/2025 10:09:50.7353	-1,0597761E+002	-6,0692303E-002
27/08/2025 10:09:53.0353	-1,0597379E+002	-6,0722519E-002
27/08/2025 10:09:55.3353	-1,0597060E+002	-6,0794372E-002
27/08/2025 10:09:57.6353	-1,0598270E+002	-6,0888652E-002
27/08/2025 10:09:59.9353	-1,0597189E+002	-6,0992740E-002
27/08/2025 10:10:02.2353	-1,0597379E+002	-6,1054323E-002
27/08/2025 10:10:04.5353	-1,0596806E+002	-6,1105583E-002
27/08/2025 10:10:06.8353	-1,0597443E+002	-6,1202154E-002
27/08/2025 10:10:09.1353	-1,0597189E+002	-6,1285656E-002
27/08/2025 10:10:11.4353	-1,0597825E+002	-6,1387308E-002
27/08/2025 10:10:13.7353	-1,0597507E+002	-6,1424632E-002
27/08/2025 10:10:16.0353	-1,0597443E+002	-6,1505385E-002
27/08/2025 10:10:17.0355	-1,0597060E+002	-6,1454840E-002