File: data/phase_2a/Sergey/1/20.7/02 polarisation/SN50_C5D2E1_hr_0,1MFeCN6_in_1M_KCl_3306mL_symmetric_balanced_4_point_PEIS_10mHz_200kHz_10mV_03_CP_C16.txt
time/s	I/mA	<Ewe/V>
27/08/2025 10:10:17.1377	1,4341676E-001	-2,4099095E-002
27/08/2025 10:10:20.5377	1,3068911E-001	-1,1916905E-002
27/08/2025 10:10:23.9377	7,9778478E-002	-8,1186388E-003
27/08/2025 10:10:27.3377	1,1159762E-001	-6,6039464E-003
27/08/2025 10:10:30.7377	1,2432528E-001	-6,0397759E-003
27/08/2025 10:10:34.1377	1,8159975E-001	-5,8734929E-003
27/08/2025 10:10:37.5377	9,8869957E-002	-5,8624535E-003
27/08/2025 10:10:40.9377	9,8869957E-002	-5,9136022E-003
27/08/2025 10:10:44.3377	9,8869957E-002	-5,9524900E-003
27/08/2025 10:10:47.7377	1,3705294E-001	-5,9789238E-003
27/08/2025 10:10:51.1377	2,1341887E-001	-5,9990166E-003
27/08/2025 10:10:54.5377	1,1159762E-001	-6,0074208E-003
27/08/2025 10:10:57.9377	1,4341676E-001	-6,0045174E-003
27/08/2025 10:11:01.3377	7,3414646E-002	-6,0144495E-003
27/08/2025 10:11:04.7377	7,9778478E-002	-6,0122344E-003
27/08/2025 10:11:08.1377	8,6142294E-002	-6,0174293E-003
27/08/2025 10:11:11.5377	9,8869957E-002	-6,0134945E-003
27/08/2025 10:11:14.9377	9,8869957E-002	-6,0104765E-003
27/08/2025 10:11:18.3377	1,2432528E-001	-6,0195685E-003
27/08/2025 10:11:21.7377	1,3705294E-001	-6,0085286E-003
27/08/2025 10:11:25.1377	1,4341676E-001	-6,0076118E-003
27/08/2025 10:11:28.5377	7,9778478E-002	-6,0205236E-003
27/08/2025 10:11:31.9377	6,0686987E-002	-6,0122344E-003
27/08/2025 10:11:35.3377	1,2432528E-001	-6,0130744E-003
27/08/2025 10:11:38.7377	1,3068911E-001	-6,0162451E-003
27/08/2025 10:11:42.1377	1,1159762E-001	-6,0141440E-003
27/08/2025 10:11:45.5377	4,7959324E-002	-6,0169706E-003
27/08/2025 10:11:48.9377	9,2506140E-002	-6,0098278E-003
27/08/2025 10:11:52.3377	1,1159762E-001	-6,0119666E-003
27/08/2025 10:11:55.7377	7,3414646E-002	-6,0188044E-003
27/08/2025 10:11:59.1377	1,0523378E-001	-6,0075354E-003
27/08/2025 10:12:02.5377	1,0523378E-001	-6,0122344E-003
27/08/2025 10:12:05.9377	1,3705294E-001	-6,0150991E-003
27/08/2025 10:12:09.3377	5,4323155E-002	-6,0136858E-003
27/08/2025 10:12:12.7377	1,1796144E-001	-6,0202559E-003
27/08/2025 10:12:16.1377	9,2506140E-002	-6,0121575E-003
27/08/2025 10:12:19.5375	1,3265106E+002	5,3167447E-002
27/08/2025 10:12:22.9375	1,3261288E+002	5,9885465E-002
27/08/2025 10:12:26.3375	1,3264470E+002	6,2614180E-002
27/08/2025 10:12:29.7375	1,3265744E+002	6,3806348E-002
27/08/2025 10:12:33.1375	1,3264470E+002	6,4284496E-002
27/08/2025 10:12:36.5375	1,3256834E+002	6,4487144E-002
27/08/2025 10:12:39.9375	1,3260652E+002	6,4587645E-002
27/08/2025 10:12:43.3375	1,3257471E+002	6,4692043E-002
27/08/2025 10:12:46.7375	1,3264470E+002	6,4782359E-002
27/08/2025 10:12:50.1375	1,3261288E+002	6,4912692E-002
27/08/2025 10:12:53.5375	1,3264470E+002	6,5028168E-002
27/08/2025 10:12:56.9375	1,3259380E+002	6,5190360E-002
27/08/2025 10:13:00.3375	1,3263834E+002	6,5336667E-002
27/08/2025 10:13:03.7375	1,3266380E+002	6,5457799E-002
27/08/2025 10:13:07.1375	1,3259380E+002	6,5616667E-002
27/08/2025 10:13:10.5375	1,3255562E+002	6,5769397E-002
27/08/2025 10:13:13.9375	1,3267017E+002	6,5922156E-002
27/08/2025 10:13:17.3375	1,3261288E+002	6,6058375E-002
27/08/2025 10:13:20.7375	1,3265744E+002	6,6205218E-002
27/08/2025 10:13:24.1375	1,3266380E+002	6,6362441E-002
27/08/2025 10:13:27.5375	1,3262563E+002	6,6508904E-002
27/08/2025 10:13:30.9375	1,3262563E+002	6,6636339E-002
27/08/2025 10:13:34.3375	1,3258743E+002	6,6782102E-002
27/08/2025 10:13:37.7375	1,3256834E+002	6,6927411E-002
27/08/2025 10:13:41.1375	1,3265106E+002	6,7064665E-002
27/08/2025 10:13:44.5375	1,3256834E+002	6,7183621E-002
27/08/2025 10:13:47.9375	1,3259380E+002	6,7347728E-002
27/08/2025 10:13:51.3375	1,3260652E+002	6,7467518E-002
27/08/2025 10:13:54.7375	1,3261925E+002	6,7629941E-002
27/08/2025 10:13:58.1375	1,3265744E+002	6,7737825E-002
27/08/2025 10:14:01.5375	1,3258743E+002	6,7911364E-002
27/08/2025 10:14:04.9375	1,3258743E+002	6,8043038E-002
27/08/2025 10:14:08.3375	1,3253653E+002	6,8180904E-002
27/08/2025 10:14:11.7375	1,3254926E+002	6,8300687E-002
27/08/2025 10:14:15.1375	1,3258107E+002	6,8480693E-002
27/08/2025 10:14:18.4377	1,1796144E-001	1,3408806E-002
27/08/2025 10:14:21.8377	6,7050815E-002	4,2015091E-003
27/08/2025 10:14:25.2377	9,2506140E-002	7,5811695E-004
27/08/2025 10:14:28.6377	1,6250826E-001	-6,0446409E-004
27/08/2025 10:14:32.0377	7,9778478E-002	-1,1059872E-003
27/08/2025 10:14:35.4377	1,4341676E-001	-1,2140921E-003
27/08/2025 10:14:38.8377	8,6142294E-002	-1,1925093E-003
27/08/2025 10:14:42.2377	9,8869957E-002	-1,1389153E-003
27/08/2025 10:14:45.6377	1,3068911E-001	-1,0918532E-003
27/08/2025 10:14:49.0377	2,3887421E-001	-1,0601858E-003
27/08/2025 10:14:52.4377	1,1796144E-001	-1,0457082E-003
27/08/2025 10:14:55.8377	1,2432528E-001	-1,0421557E-003
27/08/2025 10:14:59.2377	1,7523590E-001	-1,0353941E-003
27/08/2025 10:15:02.6377	8,6142294E-002	-1,0349358E-003
27/08/2025 10:15:06.0377	1,0523378E-001	-1,0408568E-003
27/08/2025 10:15:09.4377	1,2432528E-001	-1,0410479E-003
27/08/2025 10:15:12.8377	4,1595493E-002	-1,0399399E-003
27/08/2025 10:15:16.2377	1,4978060E-001	-1,0435689E-003
27/08/2025 10:15:19.6377	1,5614443E-001	-1,0399019E-003
27/08/2025 10:15:23.0377	1,0523378E-001	-1,0548378E-003
27/08/2025 10:15:26.4377	1,4978060E-001	-1,0460902E-003
27/08/2025 10:15:29.8377	1,8796356E-001	-1,0447913E-003
27/08/2025 10:15:33.2377	1,3068911E-001	-1,0524312E-003
27/08/2025 10:15:36.6377	1,2432528E-001	-1,0468159E-003
27/08/2025 10:15:40.0377	3,4125184E-003	-1,0495663E-003
27/08/2025 10:15:43.4377	1,8159975E-001	-1,0442566E-003
27/08/2025 10:15:46.8377	6,0686987E-002	-1,0511708E-003
27/08/2025 10:15:50.2377	1,1159762E-001	-1,0538064E-003
27/08/2025 10:15:53.6377	1,3068911E-001	-1,0472743E-003
27/08/2025 10:15:57.0377	2,0705505E-001	-1,0519347E-003
27/08/2025 10:16:00.4377	1,1796144E-001	-1,0511325E-003
27/08/2025 10:16:03.8377	1,5614443E-001	-1,0540738E-003
27/08/2025 10:16:07.2377	8,6142294E-002	-1,0578556E-003
27/08/2025 10:16:10.6377	7,9778478E-002	-1,0510560E-003
27/08/2025 10:16:14.0377	1,1796144E-001	-1,0586578E-003
27/08/2025 10:16:17.3379	-1,3233240E+002	-4,7524314E-002
27/08/2025 10:16:20.7379	-1,3242149E+002	-6,2692933E-002
27/08/2025 10:16:24.1379	-1,3242149E+002	-6,7675732E-002
27/08/2025 10:16:27.5379	-1,3241513E+002	-6,9732398E-002
27/08/2025 10:16:30.9379	-1,3243423E+002	-7,0641100E-002
27/08/2025 10:16:34.3379	-1,3232603E+002	-7,0980310E-002
27/08/2025 10:16:37.7379	-1,3240242E+002	-7,1128137E-002
27/08/2025 10:16:41.1379	-1,3236423E+002	-7,1196176E-002
27/08/2025 10:16:44.5379	-1,3236423E+002	-7,1339272E-002
27/08/2025 10:16:47.9379	-1,3241513E+002	-7,1424797E-002
27/08/2025 10:16:51.3379	-1,3230696E+002	-7,1565494E-002
27/08/2025 10:16:54.7379	-1,3238332E+002	-7,1694717E-002
27/08/2025 10:16:58.1379	-1,3242149E+002	-7,1854778E-002
27/08/2025 10:17:01.5379	-1,3233878E+002	-7,2008990E-002
27/08/2025 10:17:04.9379	-1,3237061E+002	-7,2156511E-002
27/08/2025 10:17:08.3379	-1,3242149E+002	-7,2284780E-002
27/08/2025 10:17:11.7379	-1,3236423E+002	-7,2487094E-002
27/08/2025 10:17:15.1379	-1,3233878E+002	-7,2606578E-002
27/08/2025 10:17:18.5379	-1,3236423E+002	-7,2763920E-002
27/08/2025 10:17:21.9379	-1,3235785E+002	-7,2908200E-002
27/08/2025 10:17:25.3379	-1,3238968E+002	-7,3071547E-002
27/08/2025 10:17:28.7379	-1,3234514E+002	-7,3236376E-002
27/08/2025 10:17:32.1379	-1,3243423E+002	-7,3362589E-002
27/08/2025 10:17:35.5379	-1,3235150E+002	-7,3516764E-002
27/08/2025 10:17:38.9379	-1,3237695E+002	-7,3684886E-002
27/08/2025 10:17:42.3379	-1,3235150E+002	-7,3827587E-002
27/08/2025 10:17:45.7379	-1,3238968E+002	-7,3966868E-002
27/08/2025 10:17:49.1379	-1,3237695E+002	-7,4132465E-002
27/08/2025 10:17:52.5379	-1,3234514E+002	-7,4288204E-002
27/08/2025 10:17:55.9379	-1,3233878E+002	-7,4448533E-002
27/08/2025 10:17:59.3379	-1,3240878E+002	-7,4561298E-002
27/08/2025 10:18:02.7379	-1,3242787E+002	-7,4728914E-002
27/08/2025 10:18:06.1379	-1,3240242E+002	-7,4871741E-002
27/08/2025 10:18:09.5379	-1,3240878E+002	-7,5006239E-002
27/08/2025 10:18:12.9379	-1,3242787E+002	-7,5126916E-002
27/08/2025 10:18:16.3379	-1,3237695E+002	-7,5297974E-002
27/08/2025 10:18:19.6381	1,5910551E+002	5,5303343E-002
27/08/2025 10:18:23.0381	1,5904185E+002	6,9417231E-002
27/08/2025 10:18:26.4381	1,5906096E+002	7,5152911E-002
27/08/2025 10:18:29.8381	1,5908643E+002	7,7521555E-002
27/08/2025 10:18:33.2381	1,5913733E+002	7,8473791E-002
27/08/2025 10:18:36.6381	1,5906734E+002	7,8738935E-002
27/08/2025 10:18:40.0381	1,5913097E+002	7,8814261E-002
27/08/2025 10:18:43.4381	1,5913733E+002	7,8869194E-002
27/08/2025 10:18:46.8381	1,5909277E+002	7,8956097E-002
27/08/2025 10:18:50.2381	1,5909914E+002	7,9102822E-002
27/08/2025 10:18:53.6381	1,5908005E+002	7,9222582E-002
27/08/2025 10:18:57.0381	1,5909914E+002	7,9402342E-002
27/08/2025 10:19:00.4381	1,5910551E+002	7,9595141E-002
27/08/2025 10:19:03.8381	1,5908643E+002	7,9773918E-002
27/08/2025 10:19:07.2381	1,5909914E+002	7,9933435E-002
27/08/2025 10:19:10.6381	1,5910551E+002	8,0129325E-002
27/08/2025 10:19:14.0381	1,5908005E+002	8,0294505E-002
27/08/2025 10:19:17.4381	1,5909914E+002	8,0509067E-002
27/08/2025 10:19:20.8381	1,5914371E+002	8,0646053E-002
27/08/2025 10:19:24.2381	1,5900368E+002	8,0826774E-002
27/08/2025 10:19:27.6381	1,5908643E+002	8,0991566E-002
27/08/2025 10:19:31.0381	1,5906734E+002	8,1176646E-002
27/08/2025 10:19:34.4381	1,5911823E+002	8,1318974E-002
27/08/2025 10:19:37.8381	1,5910551E+002	8,1523381E-002
27/08/2025 10:19:41.2381	1,5906096E+002	8,1665710E-002
27/08/2025 10:19:44.6381	1,5904185E+002	8,1860915E-002
27/08/2025 10:19:48.0381	1,5902278E+002	8,1986889E-002
27/08/2025 10:19:51.4381	1,5911188E+002	8,2183965E-002
27/08/2025 10:19:54.8381	1,5904185E+002	8,2350515E-002
27/08/2025 10:19:58.2381	1,5912460E+002	8,2537159E-002
27/08/2025 10:20:01.6381	1,5906734E+002	8,2698628E-002
27/08/2025 10:20:05.0381	1,5904185E+002	8,2902275E-002
27/08/2025 10:20:08.4381	1,5906734E+002	8,3079636E-002
27/08/2025 10:20:11.8381	1,5901642E+002	8,3253212E-002
27/08/2025 10:20:15.2381	1,5911188E+002	8,3429083E-002
27/08/2025 10:20:18.5385	9,2506140E-002	1,6700583E-002
27/08/2025 10:20:21.9385	8,6142294E-002	6,0259616E-003
27/08/2025 10:20:25.3385	7,3414646E-002	1,9825299E-003
27/08/2025 10:20:28.7385	9,8869957E-002	3,8631991E-004
27/08/2025 10:20:32.1385	1,1159762E-001	-1,9675936E-004
27/08/2025 10:20:35.5385	8,6142294E-002	-3,2778413E-004
27/08/2025 10:20:38.9385	7,9778478E-002	-2,9015751E-004
27/08/2025 10:20:42.3385	1,7523590E-001	-2,3083345E-004
27/08/2025 10:20:45.7385	1,9432738E-001	-1,7242620E-004
27/08/2025 10:20:49.1385	9,8869957E-002	-1,3361538E-004
27/08/2025 10:20:52.5385	1,1159762E-001	-1,2177348E-004
27/08/2025 10:20:55.9385	6,0686987E-002	-1,0943499E-004
27/08/2025 10:20:59.3385	1,1796144E-001	-1,0828900E-004
27/08/2025 10:21:02.7385	2,1978271E-001	-1,0756322E-004
27/08/2025 10:21:06.1385	2,2614653E-001	-1,0630262E-004
27/08/2025 10:21:09.5385	1,5614443E-001	-1,1474474E-004
27/08/2025 10:21:12.9385	9,2506140E-002	-1,1264376E-004
27/08/2025 10:21:16.3385	7,3414646E-002	-1,0668462E-004
27/08/2025 10:21:19.7385	7,9778478E-002	-1,1657833E-004
27/08/2025 10:21:23.1385	1,8159975E-001	-1,1145958E-004
27/08/2025 10:21:26.5385	1,1796144E-001	-1,0981699E-004
27/08/2025 10:21:29.9385	1,3068911E-001	-1,1520314E-004
27/08/2025 10:21:33.3385	8,6142294E-002	-1,1585253E-004
27/08/2025 10:21:36.7385	1,2432528E-001	-1,1512674E-004
27/08/2025 10:21:40.1385	9,8869957E-002	-1,2005449E-004
27/08/2025 10:21:43.5385	1,0523378E-001	-1,1134497E-004
27/08/2025 10:21:46.9385	4,1595493E-002	-1,2028369E-004
27/08/2025 10:21:50.3385	1,1159762E-001	-1,2341606E-004
27/08/2025 10:21:53.7385	7,3414646E-002	-1,1654013E-004
27/08/2025 10:21:57.1385	1,2432528E-001	-1,2360705E-004
27/08/2025 10:22:00.5385	3,4125184E-003	-1,1470654E-004
27/08/2025 10:22:03.9385	7,9778478E-002	-1,2475305E-004
27/08/2025 10:22:07.3385	1,6887209E-001	-1,2039828E-004
27/08/2025 10:22:10.7385	1,2432528E-001	-1,1478294E-004
27/08/2025 10:22:14.1385	1,3705294E-001	-1,2104768E-004
27/08/2025 10:22:17.4387	-1,5887593E+002	-5,7017155E-002
27/08/2025 10:22:20.8387	-1,5886957E+002	-7,4293360E-002
27/08/2025 10:22:24.2387	-1,5888866E+002	-8,0147684E-002
27/08/2025 10:22:27.6387	-1,5882503E+002	-8,2614884E-002
27/08/2025 10:22:31.0387	-1,5890138E+002	-8,3656818E-002
27/08/2025 10:22:34.4387	-1,5886957E+002	-8,4146120E-002
27/08/2025 10:22:37.8387	-1,5890776E+002	-8,4288262E-002
27/08/2025 10:22:41.2387	-1,5891411E+002	-8,4413894E-002
27/08/2025 10:22:44.6387	-1,5891411E+002	-8,4534265E-002
27/08/2025 10:22:48.0387	-1,5893321E+002	-8,4681943E-002
27/08/2025 10:22:51.4387	-1,5888231E+002	-8,4853880E-002
27/08/2025 10:22:54.8387	-1,5890138E+002	-8,5012637E-002
27/08/2025 10:22:58.2387	-1,5882503E+002	-8,5174911E-002
27/08/2025 10:23:01.6387	-1,5892049E+002	-8,5391887E-002
27/08/2025 10:23:05.0387	-1,5890776E+002	-8,5559577E-002
27/08/2025 10:23:08.4387	-1,5888866E+002	-8,5728042E-002
27/08/2025 10:23:11.8387	-1,5887593E+002	-8,5936375E-002
27/08/2025 10:23:15.2387	-1,5889502E+002	-8,6101629E-002
27/08/2025 10:23:18.6387	-1,5893321E+002	-8,6312570E-002
27/08/2025 10:23:22.0387	-1,5889502E+002	-8,6477704E-002
27/08/2025 10:23:25.4387	-1,5883774E+002	-8,6659044E-002
27/08/2025 10:23:28.8387	-1,5886957E+002	-8,6864024E-002
27/08/2025 10:23:32.2387	-1,5888231E+002	-8,7036379E-002
27/08/2025 10:23:35.6387	-1,5889502E+002	-8,7182991E-002
27/08/2025 10:23:39.0387	-1,5890138E+002	-8,7393202E-002
27/08/2025 10:23:42.4387	-1,5887593E+002	-8,7553531E-002
27/08/2025 10:23:45.8387	-1,5881865E+002	-8,7748952E-002
27/08/2025 10:23:49.2387	-1,5888231E+002	-8,7877721E-002
27/08/2025 10:23:52.6387	-1,5886320E+002	-8,8071547E-002
27/08/2025 10:23:56.0387	-1,5886957E+002	-8,8232979E-002
27/08/2025 10:23:59.4387	-1,5889502E+002	-8,8421263E-002
27/08/2025 10:24:02.8387	-1,5890776E+002	-8,8564709E-002
27/08/2025 10:24:06.2387	-1,5892683E+002	-8,8773124E-002
27/08/2025 10:24:09.6387	-1,5890776E+002	-8,8909574E-002
27/08/2025 10:24:13.0387	-1,5885684E+002	-8,9107178E-002
27/08/2025 10:24:16.4387	-1,5897139E+002	-8,9256503E-002
27/08/2025 10:24:19.7389	1,8565540E+002	6,5834485E-002
27/08/2025 10:24:23.1389	1,8562994E+002	8,2074754E-002
27/08/2025 10:24:26.5389	1,8566177E+002	8,8767983E-002
27/08/2025 10:24:29.9389	1,8560449E+002	9,1515943E-002
27/08/2025 10:24:33.3389	1,8570631E+002	9,2595667E-002
27/08/2025 10:24:36.7389	1,8556631E+002	9,2946753E-002
27/08/2025 10:24:40.1389	1,8557903E+002	9,3045957E-002
27/08/2025 10:24:43.5389	1,8565540E+002	9,3096957E-002
27/08/2025 10:24:46.9389	1,8565540E+002	9,3205556E-002
27/08/2025 10:24:50.3389	1,8561722E+002	9,3336277E-002
27/08/2025 10:24:53.7389	1,8569995E+002	9,3536906E-002
27/08/2025 10:24:57.1389	1,8566177E+002	9,3674757E-002
27/08/2025 10:25:00.5389	1,8566812E+002	9,3884513E-002
27/08/2025 10:25:03.9389	1,8562994E+002	9,4071656E-002
27/08/2025 10:25:07.3389	1,8566177E+002	9,4286375E-002
27/08/2025 10:25:10.7389	1,8555357E+002	9,4464161E-002
27/08/2025 10:25:14.1389	1,8566177E+002	9,4703175E-002
27/08/2025 10:25:17.5389	1,8561086E+002	9,4877668E-002
27/08/2025 10:25:20.9389	1,8566177E+002	9,5119432E-002
27/08/2025 10:25:24.3389	1,8557903E+002	9,5290832E-002
27/08/2025 10:25:27.7389	1,8565540E+002	9,5530048E-002
27/08/2025 10:25:31.1389	1,8565540E+002	9,5725551E-002
27/08/2025 10:25:34.5389	1,8569357E+002	9,5946305E-002
27/08/2025 10:25:37.9389	1,8566177E+002	9,6153080E-002
27/08/2025 10:25:41.3389	1,8564905E+002	9,6415706E-002
27/08/2025 10:25:44.7389	1,8562360E+002	9,6598566E-002
27/08/2025 10:25:48.1389	1,8562360E+002	9,6822642E-002
27/08/2025 10:25:51.5389	1,8561722E+002	9,7018689E-002
27/08/2025 10:25:54.9389	1,8566177E+002	9,7259112E-002
27/08/2025 10:25:58.3389	1,8563631E+002	9,7474977E-002
27/08/2025 10:26:01.7389	1,8567448E+002	9,7665861E-002
27/08/2025 10:26:05.1389	1,8568088E+002	9,7887807E-002
27/08/2025 10:26:08.5389	1,8564267E+002	9,8124906E-002
27/08/2025 10:26:11.9389	1,8569995E+002	9,8324314E-002
27/08/2025 10:26:15.3389	1,8561086E+002	9,8539643E-002
27/08/2025 10:26:18.6393	1,6250826E-001	1,9898161E-002
27/08/2025 10:26:22.0393	9,8869957E-002	7,7833743E-003
27/08/2025 10:26:25.4393	1,3705294E-001	3,1976223E-003
27/08/2025 10:26:28.8393	1,1796144E-001	1,3836742E-003
27/08/2025 10:26:32.2393	1,2432528E-001	7,1762537E-004
27/08/2025 10:26:35.6393	1,1796144E-001	5,7995383E-004
27/08/2025 10:26:39.0393	9,8869957E-002	6,2636641E-004
27/08/2025 10:26:42.4393	1,1796144E-001	6,9390336E-004
27/08/2025 10:26:45.8393	1,3705294E-001	7,6289196E-004
27/08/2025 10:26:49.2393	1,4978060E-001	7,9979276E-004
27/08/2025 10:26:52.6393	1,5614443E-001	8,1946561E-004
27/08/2025 10:26:56.0393	1,1796144E-001	8,3730486E-004
27/08/2025 10:26:59.4393	1,1159762E-001	8,3237706E-004
27/08/2025 10:27:02.8393	1,1796144E-001	8,2756393E-004
27/08/2025 10:27:06.2393	1,3068911E-001	8,3845080E-004
27/08/2025 10:27:09.6393	1,6250826E-001	8,2798413E-004
27/08/2025 10:27:13.0393	1,3705294E-001	8,2958851E-004
27/08/2025 10:27:16.4393	1,5614443E-001	8,2981773E-004
27/08/2025 10:27:19.8393	1,3705294E-001	8,2645612E-004
27/08/2025 10:27:23.2393	1,4341676E-001	8,2798413E-004
27/08/2025 10:27:26.6393	1,0523378E-001	8,1893080E-004
27/08/2025 10:27:30.0393	1,2432528E-001	8,2607416E-004
27/08/2025 10:27:33.4393	7,9778478E-002	8,2882453E-004
27/08/2025 10:27:36.8393	1,2432528E-001	8,2011498E-004
27/08/2025 10:27:40.2393	7,9778478E-002	8,2893908E-004
27/08/2025 10:27:43.6393	1,6250826E-001	8,2191039E-004
27/08/2025 10:27:47.0393	9,2506140E-002	8,1992400E-004
27/08/2025 10:27:50.4393	1,0523378E-001	8,2722015E-004
27/08/2025 10:27:53.8393	1,4341676E-001	8,2022959E-004
27/08/2025 10:27:57.2393	1,0523378E-001	8,2194858E-004
27/08/2025 10:28:00.6393	2,8867837E-002	8,1786123E-004
27/08/2025 10:28:04.0393	1,9432738E-001	8,1484340E-004
27/08/2025 10:28:07.4393	6,7050815E-002	8,2294177E-004
27/08/2025 10:28:10.8393	1,1796144E-001	8,1916002E-004
27/08/2025 10:28:14.2393	1,3705294E-001	8,1167289E-004
27/08/2025 10:28:17.5395	-1,8534946E+002	-6,6862389E-002
27/08/2025 10:28:20.9395	-1,8529855E+002	-8,5997157E-002
27/08/2025 10:28:24.3395	-1,8531763E+002	-9,2747033E-002
27/08/2025 10:28:27.7395	-1,8540674E+002	-9,5568500E-002
27/08/2025 10:28:31.1395	-1,8537491E+002	-9,6786648E-002
27/08/2025 10:28:34.5395	-1,8538765E+002	-9,7303256E-002
27/08/2025 10:28:37.9395	-1,8534946E+002	-9,7513162E-002
27/08/2025 10:28:41.3395	-1,8536220E+002	-9,7685635E-002
27/08/2025 10:28:44.7395	-1,8536855E+002	-9,7787209E-002
27/08/2025 10:28:48.1395	-1,8529855E+002	-9,7974353E-002
27/08/2025 10:28:51.5395	-1,8537491E+002	-9,8180704E-002
27/08/2025 10:28:54.9395	-1,8531128E+002	-9,8375708E-002
27/08/2025 10:28:58.3395	-1,8537491E+002	-9,8569036E-002
27/08/2025 10:29:01.7395	-1,8534309E+002	-9,8805882E-002
27/08/2025 10:29:05.1395	-1,8533673E+002	-9,8982975E-002
27/08/2025 10:29:08.5395	-1,8535582E+002	-9,9234968E-002
27/08/2025 10:29:11.9395	-1,8532401E+002	-9,9383570E-002
27/08/2025 10:29:15.3395	-1,8530492E+002	-9,9617079E-002
27/08/2025 10:29:18.7395	-1,8534309E+002	-9,9817865E-002
27/08/2025 10:29:22.1395	-1,8532401E+002	-1,0001142E-001
27/08/2025 10:29:25.5395	-1,8536220E+002	-1,0018030E-001
27/08/2025 10:29:28.9395	-1,8537491E+002	-1,0044850E-001
27/08/2025 10:29:32.3395	-1,8534946E+002	-1,0061578E-001
27/08/2025 10:29:35.7395	-1,8536220E+002	-1,0085368E-001
27/08/2025 10:29:39.1395	-1,8534309E+002	-1,0103922E-001
27/08/2025 10:29:42.5395	-1,8538129E+002	-1,0127896E-001
27/08/2025 10:29:45.9395	-1,8539400E+002	-1,0147893E-001
27/08/2025 10:29:49.3395	-1,8534309E+002	-1,0168178E-001
27/08/2025 10:29:52.7395	-1,8535582E+002	-1,0189421E-001
27/08/2025 10:29:56.1395	-1,8535582E+002	-1,0214961E-001
27/08/2025 10:29:59.5395	-1,8538765E+002	-1,0234191E-001
27/08/2025 10:30:02.9395	-1,8533037E+002	-1,0256636E-001
27/08/2025 10:30:06.3395	-1,8535582E+002	-1,0277218E-001
27/08/2025 10:30:09.7395	-1,8538129E+002	-1,0300967E-001
27/08/2025 10:30:13.1395	-1,8533673E+002	-1,0324353E-001
27/08/2025 10:30:16.5395	-1,8535582E+002	-1,0342853E-001
27/08/2025 10:30:19.8397	2,1211621E+002	7,6361850E-002
27/08/2025 10:30:23.2397	2,1212894E+002	9,4699927E-002
27/08/2025 10:30:26.6397	2,1216077E+002	1,0226540E-001
27/08/2025 10:30:30.0397	2,1216711E+002	1,0546730E-001
27/08/2025 10:30:33.4397	2,1217349E+002	1,0664606E-001
27/08/2025 10:30:36.8397	2,1219894E+002	1,0704857E-001
27/08/2025 10:30:40.2397	2,1214166E+002	1,0713711E-001
27/08/2025 10:30:43.6397	2,1209074E+002	1,0721936E-001
27/08/2025 10:30:47.0397	2,1211621E+002	1,0729832E-001
27/08/2025 10:30:50.4397	2,1205894E+002	1,0749353E-001
27/08/2025 10:30:53.8397	2,1215439E+002	1,0767650E-001
27/08/2025 10:30:57.2397	2,1210985E+002	1,0790417E-001
27/08/2025 10:31:00.6397	2,1214166E+002	1,0814062E-001
27/08/2025 10:31:04.0397	2,1219258E+002	1,0842555E-001
27/08/2025 10:31:07.4397	2,1216077E+002	1,0866835E-001
27/08/2025 10:31:10.8397	2,1206529E+002	1,0893181E-001
27/08/2025 10:31:14.2397	2,1207803E+002	1,0914363E-001
27/08/2025 10:31:17.6397	2,1218620E+002	1,0943192E-001
27/08/2025 10:31:21.0397	2,1216711E+002	1,0969336E-001
27/08/2025 10:31:24.4397	2,1218620E+002	1,0990728E-001
27/08/2025 10:31:27.8397	2,1212257E+002	1,1016119E-001
27/08/2025 10:31:31.2397	2,1217349E+002	1,1043588E-001
27/08/2025 10:31:34.6397	2,1216077E+002	1,1067387E-001
27/08/2025 10:31:38.0397	2,1215439E+002	1,1092492E-001
27/08/2025 10:31:41.4397	2,1214166E+002	1,1117727E-001
27/08/2025 10:31:44.8397	2,1213531E+002	1,1144394E-001
27/08/2025 10:31:48.2397	2,1212257E+002	1,1172932E-001
27/08/2025 10:31:51.6397	2,1213531E+002	1,1191902E-001
27/08/2025 10:31:55.0397	2,1214803E+002	1,1219192E-001
27/08/2025 10:31:58.4397	2,1217349E+002	1,1242601E-001
27/08/2025 10:32:01.8397	2,1208440E+002	1,1268920E-001
27/08/2025 10:32:05.2397	2,1209712E+002	1,1289682E-001
27/08/2025 10:32:08.6397	2,1212257E+002	1,1315849E-001
27/08/2025 10:32:12.0397	2,1221167E+002	1,1336725E-001
27/08/2025 10:32:15.4397	2,1212894E+002	1,1366425E-001
27/08/2025 10:32:18.7401	1,4978060E-001	2,2898322E-002
27/08/2025 10:32:22.1401	1,1796144E-001	9,4688572E-003
27/08/2025 10:32:25.5401	1,6887209E-001	4,3797866E-003
27/08/2025 10:32:28.9401	1,4978060E-001	2,3748402E-003
27/08/2025 10:32:32.3401	1,4341676E-001	1,6361738E-003
27/08/2025 10:32:35.7401	5,4323155E-002	1,4951025E-003
27/08/2025 10:32:39.1401	1,4978060E-001	1,5394907E-003
27/08/2025 10:32:42.5401	8,6142294E-002	1,6155079E-003
27/08/2025 10:32:45.9401	1,1159762E-001	1,7008459E-003
27/08/2025 10:32:49.3401	1,0523378E-001	1,7323988E-003
27/08/2025 10:32:52.7401	1,3068911E-001	1,7581071E-003
27/08/2025 10:32:56.1401	9,2506140E-002	1,7734251E-003
27/08/2025 10:32:59.5401	4,7959324E-002	1,7695287E-003
27/08/2025 10:33:02.9401	1,3705294E-001	1,7796516E-003
27/08/2025 10:33:06.3401	6,0686987E-002	1,7716297E-003
27/08/2025 10:33:09.7401	6,7050815E-002	1,7690321E-003
27/08/2025 10:33:13.1401	1,0523378E-001	1,7719354E-003
27/08/2025 10:33:16.5401	6,7050815E-002	1,7662436E-003
27/08/2025 10:33:19.9401	1,6250826E-001	1,7730432E-003
27/08/2025 10:33:23.3401	1,1159762E-001	1,7709039E-003
27/08/2025 10:33:26.7401	1,5614443E-001	1,7593678E-003
27/08/2025 10:33:30.1401	1,3705294E-001	1,7690704E-003
27/08/2025 10:33:33.5401	1,3068911E-001	1,7605136E-003
27/08/2025 10:33:36.9401	1,9432738E-001	1,7667019E-003
27/08/2025 10:33:40.3401	9,8869957E-002	1,7704073E-003
27/08/2025 10:33:43.7401	9,8869957E-002	1,7618889E-003
27/08/2025 10:33:47.1401	1,1796144E-001	1,7644101E-003
27/08/2025 10:33:50.5401	1,4341676E-001	1,7620799E-003
27/08/2025 10:33:53.9401	1,0523378E-001	1,7623855E-003
27/08/2025 10:33:57.3401	1,2432528E-001	1,7661672E-003
27/08/2025 10:34:00.7401	1,5614443E-001	1,7612013E-003
27/08/2025 10:34:04.1401	1,2432528E-001	1,7674278E-003
27/08/2025 10:34:07.5401	9,8869957E-002	1,7644101E-003
27/08/2025 10:34:10.9401	9,2506140E-002	1,7636843E-003
27/08/2025 10:34:14.3401	1,0523378E-001	1,7704456E-003
27/08/2025 10:34:17.6403	-2,1179117E+002	-7,6879211E-002
27/08/2025 10:34:21.0403	-2,1179755E+002	-9,7748324E-002
27/08/2025 10:34:24.4403	-2,1186118E+002	-1,0534249E-001
27/08/2025 10:34:27.8403	-2,1184209E+002	-1,0856508E-001
27/08/2025 10:34:31.2403	-2,1186118E+002	-1,0996995E-001
27/08/2025 10:34:34.6403	-2,1182300E+002	-1,1050203E-001
27/08/2025 10:34:38.0403	-2,1182935E+002	-1,1077756E-001
27/08/2025 10:34:41.4403	-2,1185481E+002	-1,1090233E-001
27/08/2025 10:34:44.8403	-2,1175299E+002	-1,1108045E-001
27/08/2025 10:34:48.2403	-2,1182300E+002	-1,1120380E-001
27/08/2025 10:34:51.6403	-2,1179755E+002	-1,1145543E-001
27/08/2025 10:34:55.0403	-2,1181664E+002	-1,1166464E-001
27/08/2025 10:34:58.4403	-2,1174026E+002	-1,1190595E-001
27/08/2025 10:35:01.8403	-2,1186118E+002	-1,1212040E-001
27/08/2025 10:35:05.2403	-2,1184209E+002	-1,1241584E-001
27/08/2025 10:35:08.6403	-2,1181664E+002	-1,1261822E-001
27/08/2025 10:35:12.0403	-2,1181027E+002	-1,1290541E-001
27/08/2025 10:35:15.4403	-2,1182935E+002	-1,1313418E-001
27/08/2025 10:35:18.8403	-2,1184209E+002	-1,1342748E-001
27/08/2025 10:35:22.2403	-2,1182935E+002	-1,1367780E-001
27/08/2025 10:35:25.6403	-2,1187392E+002	-1,1391131E-001
27/08/2025 10:35:29.0403	-2,1172754E+002	-1,1414792E-001
27/08/2025 10:35:32.4403	-2,1177206E+002	-1,1441967E-001
27/08/2025 10:35:35.8403	-2,1188663E+002	-1,1465269E-001
27/08/2025 10:35:39.2403	-2,1188026E+002	-1,1490844E-001
27/08/2025 10:35:42.6403	-2,1181664E+002	-1,1517194E-001
27/08/2025 10:35:46.0403	-2,1179117E+002	-1,1541413E-001
27/08/2025 10:35:49.4403	-2,1183574E+002	-1,1568549E-001
27/08/2025 10:35:52.8403	-2,1174664E+002	-1,1591297E-001
27/08/2025 10:35:56.2403	-2,1181027E+002	-1,1617170E-001
27/08/2025 10:35:59.6403	-2,1187392E+002	-1,1646099E-001
27/08/2025 10:36:03.0403	-2,1181664E+002	-1,1672514E-001
27/08/2025 10:36:06.4403	-2,1181027E+002	-1,1697248E-001
27/08/2025 10:36:09.8403	-2,1182300E+002	-1,1724839E-001
27/08/2025 10:36:13.2403	-2,1179755E+002	-1,1750261E-001
27/08/2025 10:36:16.6403	-2,1185481E+002	-1,1777337E-001
27/08/2025 10:36:19.9405	2,3862791E+002	8,7103926E-002
27/08/2025 10:36:23.3405	2,3859610E+002	1,0737422E-001
27/08/2025 10:36:26.7405	2,3859610E+002	1,1590901E-001
27/08/2025 10:36:30.1405	2,3860883E+002	1,1945585E-001
27/08/2025 10:36:33.5405	2,3860883E+002	1,2087054E-001
27/08/2025 10:36:36.9405	2,3861520E+002	1,2127671E-001
27/08/2025 10:36:40.3405	2,3861520E+002	1,2144105E-001
27/08/2025 10:36:43.7405	2,3862791E+002	1,2154954E-001
27/08/2025 10:36:47.1405	2,3867883E+002	1,2165852E-001
27/08/2025 10:36:50.5405	2,3864700E+002	1,2184471E-001
27/08/2025 10:36:53.9405	2,3860246E+002	1,2211970E-001
27/08/2025 10:36:57.3405	2,3864700E+002	1,2236055E-001
27/08/2025 10:37:00.7405	2,3862791E+002	1,2263112E-001
27/08/2025 10:37:04.1405	2,3860883E+002	1,2291532E-001
27/08/2025 10:37:07.5405	2,3861520E+002	1,2320782E-001
27/08/2025 10:37:10.9405	2,3865974E+002	1,2353015E-001
27/08/2025 10:37:14.3405	2,3855792E+002	1,2377879E-001
27/08/2025 10:37:17.7405	2,3859610E+002	1,2408973E-001
27/08/2025 10:37:21.1405	2,3856429E+002	1,2439632E-001
27/08/2025 10:37:24.5405	2,3858974E+002	1,2468435E-001
27/08/2025 10:37:27.9405	2,3859610E+002	1,2492967E-001
27/08/2025 10:37:31.3405	2,3862791E+002	1,2522724E-001
27/08/2025 10:37:34.7405	2,3858337E+002	1,2548383E-001
27/08/2025 10:37:38.1405	2,3855156E+002	1,2580509E-001
27/08/2025 10:37:41.5405	2,3860246E+002	1,2602848E-001
27/08/2025 10:37:44.9405	2,3867883E+002	1,2633702E-001
27/08/2025 10:37:48.3405	2,3860246E+002	1,2660255E-001
27/08/2025 10:37:51.7405	2,3860246E+002	1,2689883E-001
27/08/2025 10:37:55.1405	2,3860246E+002	1,2715445E-001
27/08/2025 10:37:58.5405	2,3857701E+002	1,2746261E-001
27/08/2025 10:38:01.9405	2,3864066E+002	1,2771305E-001
27/08/2025 10:38:05.3405	2,3856429E+002	1,2802170E-001
27/08/2025 10:38:08.7405	2,3861520E+002	1,2827508E-001
27/08/2025 10:38:12.1405	2,3859610E+002	1,2859966E-001
27/08/2025 10:38:15.5405	2,3856429E+002	1,2888023E-001
27/08/2025 10:38:18.8409	1,6887209E-001	2,5773225E-002
27/08/2025 10:38:22.2409	6,0686987E-002	1,1151398E-002
27/08/2025 10:38:25.6409	9,2506140E-002	5,5511016E-003
27/08/2025 10:38:29.0409	2,0705505E-001	3,3414438E-003
27/08/2025 10:38:32.4409	1,5614443E-001	2,5447139E-003
27/08/2025 10:38:35.8409	1,0523378E-001	2,3882866E-003
27/08/2025 10:38:39.2409	1,3068911E-001	2,4530350E-003
27/08/2025 10:38:42.6409	7,9778478E-002	2,5535761E-003
27/08/2025 10:38:46.0409	6,0686987E-002	2,6309688E-003
27/08/2025 10:38:49.4409	6,7050815E-002	2,6848302E-003
27/08/2025 10:38:52.8409	1,0523378E-001	2,7015998E-003
27/08/2025 10:38:56.2409	1,3068911E-001	2,7184843E-003
27/08/2025 10:38:59.6409	1,3705294E-001	2,7169180E-003
27/08/2025 10:39:03.0409	8,6142294E-002	2,7170707E-003
27/08/2025 10:39:06.4409	6,7050815E-002	2,7167271E-003
27/08/2025 10:39:09.8409	7,3414646E-002	2,7116081E-003
27/08/2025 10:39:13.2409	9,8869957E-002	2,7087051E-003
27/08/2025 10:39:16.6409	1,2432528E-001	2,7093163E-003
27/08/2025 10:39:20.0409	7,9778478E-002	2,7075591E-003
27/08/2025 10:39:23.4409	1,2432528E-001	2,7140530E-003
27/08/2025 10:39:26.8409	1,1796144E-001	2,7058402E-003
27/08/2025 10:39:30.2409	1,4341676E-001	2,7072153E-003
27/08/2025 10:39:33.6409	1,3705294E-001	2,7081321E-003
27/08/2025 10:39:37.0409	4,7959324E-002	2,7111114E-003
27/08/2025 10:39:40.4409	1,4978060E-001	2,7181786E-003
27/08/2025 10:39:43.8409	1,1796144E-001	2,7055345E-003
27/08/2025 10:39:47.2409	1,1159762E-001	2,7105005E-003
27/08/2025 10:39:50.6409	1,2432528E-001	2,7156956E-003
27/08/2025 10:39:54.0409	1,1159762E-001	2,7061459E-003
27/08/2025 10:39:57.4409	1,2432528E-001	2,7060693E-003
27/08/2025 10:40:00.8409	1,4341676E-001	2,7056111E-003
27/08/2025 10:40:04.2409	8,6142294E-002	2,7010269E-003
27/08/2025 10:40:07.6409	1,5614443E-001	2,7053435E-003
27/08/2025 10:40:11.0409	1,1159762E-001	2,6997284E-003
27/08/2025 10:40:14.4409	1,0523378E-001	2,7071007E-003
27/08/2025 10:40:17.7411	-2,3835381E+002	-8,6869903E-002
27/08/2025 10:40:21.1411	-2,3825197E+002	-1,0950419E-001
27/08/2025 10:40:24.5411	-2,3832834E+002	-1,1788763E-001
27/08/2025 10:40:27.9411	-2,3827744E+002	-1,2152787E-001
27/08/2025 10:40:31.3411	-2,3834743E+002	-1,2308454E-001
27/08/2025 10:40:34.7411	-2,3835381E+002	-1,2373824E-001
27/08/2025 10:40:38.1411	-2,3833472E+002	-1,2398968E-001
27/08/2025 10:40:41.5411	-2,3828378E+002	-1,2422621E-001
27/08/2025 10:40:44.9411	-2,3830923E+002	-1,2440220E-001
27/08/2025 10:40:48.3411	-2,3839198E+002	-1,2461134E-001
27/08/2025 10:40:51.7411	-2,3835381E+002	-1,2484271E-001
27/08/2025 10:40:55.1411	-2,3832834E+002	-1,2516221E-001
27/08/2025 10:40:58.5411	-2,3828378E+002	-1,2541369E-001
27/08/2025 10:41:01.9411	-2,3830289E+002	-1,2571882E-001
27/08/2025 10:41:05.3411	-2,3827744E+002	-1,2599489E-001
27/08/2025 10:41:08.7411	-2,3827106E+002	-1,2633185E-001
27/08/2025 10:41:12.1411	-2,3831561E+002	-1,2662533E-001
27/08/2025 10:41:15.5411	-2,3827744E+002	-1,2688032E-001
27/08/2025 10:41:18.9411	-2,3833472E+002	-1,2716001E-001
27/08/2025 10:41:22.3411	-2,3829652E+002	-1,2748094E-001
27/08/2025 10:41:25.7411	-2,3825197E+002	-1,2778664E-001
27/08/2025 10:41:29.1411	-2,3830289E+002	-1,2805785E-001
27/08/2025 10:41:32.5411	-2,3829016E+002	-1,2836173E-001
27/08/2025 10:41:35.9411	-2,3837926E+002	-1,2866688E-001
27/08/2025 10:41:39.3411	-2,3828378E+002	-1,2898007E-001
27/08/2025 10:41:42.7411	-2,3829016E+002	-1,2919533E-001
27/08/2025 10:41:46.1411	-2,3832198E+002	-1,2950949E-001
27/08/2025 10:41:49.5411	-2,3832834E+002	-1,2977299E-001
27/08/2025 10:41:52.9411	-2,3830923E+002	-1,3006353E-001
27/08/2025 10:41:56.3411	-2,3829652E+002	-1,3031764E-001
27/08/2025 10:41:59.7411	-2,3836017E+002	-1,3063306E-001
27/08/2025 10:42:03.1411	-2,3829016E+002	-1,3089441E-001
27/08/2025 10:42:06.5411	-2,3832198E+002	-1,3122074E-001
27/08/2025 10:42:09.9411	-2,3829652E+002	-1,3143252E-001
27/08/2025 10:42:13.3411	-2,3831561E+002	-1,3177030E-001
27/08/2025 10:42:16.7411	-2,3836017E+002	-1,3202265E-001
27/08/2025 10:42:20.0413	2,6509509E+002	9,8105080E-002
27/08/2025 10:42:23.4413	2,6508234E+002	1,2024923E-001
27/08/2025 10:42:26.8413	2,6513962E+002	1,2968045E-001
27/08/2025 10:42:30.2413	2,6510782E+002	1,3366351E-001
27/08/2025 10:42:33.6413	2,6508871E+002	1,3527994E-001
27/08/2025 10:42:37.0413	2,6513327E+002	1,3573192E-001
27/08/2025 10:42:40.4413	2,6512054E+002	1,3588186E-001
27/08/2025 10:42:43.8413	2,6508234E+002	1,3601768E-001
27/08/2025 10:42:47.2413	2,6510147E+002	1,3618253E-001
27/08/2025 10:42:50.6413	2,6517145E+002	1,3637130E-001
27/08/2025 10:42:54.0413	2,6508871E+002	1,3668244E-001
27/08/2025 10:42:57.4413	2,6508234E+002	1,3694911E-001
27/08/2025 10:43:00.8413	2,6505692E+002	1,3731842E-001
27/08/2025 10:43:04.2413	2,6506961E+002	1,3756634E-001
27/08/2025 10:43:07.6413	2,6512689E+002	1,3788581E-001
27/08/2025 10:43:11.0413	2,6506961E+002	1,3820904E-001
27/08/2025 10:43:14.4413	2,6510782E+002	1,3854420E-001
27/08/2025 10:43:17.8413	2,6510147E+002	1,3879800E-001
27/08/2025 10:43:21.2413	2,6508234E+002	1,3917065E-001
27/08/2025 10:43:24.6413	2,6513327E+002	1,3945322E-001
27/08/2025 10:43:28.0413	2,6509509E+002	1,3979201E-001
27/08/2025 10:43:31.4413	2,6513327E+002	1,4007373E-001
27/08/2025 10:43:34.8413	2,6512054E+002	1,4043468E-001
27/08/2025 10:43:38.2413	2,6512689E+002	1,4074077E-001
27/08/2025 10:43:41.6413	2,6508871E+002	1,4107341E-001
27/08/2025 10:43:45.0413	2,6510147E+002	1,4137274E-001
27/08/2025 10:43:48.4413	2,6512054E+002	1,4176616E-001
27/08/2025 10:43:51.8413	2,6510782E+002	1,4205682E-001
27/08/2025 10:43:55.2413	2,6510782E+002	1,4241900E-001
27/08/2025 10:43:58.6413	2,6509509E+002	1,4275254E-001
27/08/2025 10:44:02.0413	2,6512054E+002	1,4312343E-001
27/08/2025 10:44:05.4413	2,6513962E+002	1,4345893E-001
27/08/2025 10:44:08.8413	2,6506326E+002	1,4379171E-001
27/08/2025 10:44:12.2413	2,6508871E+002	1,4410268E-001
27/08/2025 10:44:15.6413	2,6515237E+002	1,4449485E-001
27/08/2025 10:44:18.9417	1,4978060E-001	2,8599542E-002
27/08/2025 10:44:22.3417	1,1796144E-001	1,2810141E-002
27/08/2025 10:44:25.7417	1,3068911E-001	6,7339917E-003
27/08/2025 10:44:29.1417	1,6250826E-001	4,3222192E-003
27/08/2025 10:44:32.5417	1,5614443E-001	3,4668534E-003
27/08/2025 10:44:35.9417	2,2614653E-001	3,3006084E-003
27/08/2025 10:44:39.3417	1,4978060E-001	3,3650130E-003
27/08/2025 10:44:42.7417	1,7523590E-001	3,4702148E-003
27/08/2025 10:44:46.1417	1,1159762E-001	3,5508543E-003
27/08/2025 10:44:49.5417	1,4341676E-001	3,6141130E-003
27/08/2025 10:44:52.9417	1,4978060E-001	3,6328691E-003
27/08/2025 10:44:56.3417	6,7050815E-002	3,6503645E-003
27/08/2025 10:44:59.7417	1,5614443E-001	3,6593415E-003
27/08/2025 10:45:03.1417	1,1159762E-001	3,6523507E-003
27/08/2025 10:45:06.5417	4,1595493E-002	3,6575459E-003
27/08/2025 10:45:09.9417	1,3068911E-001	3,6542988E-003
27/08/2025 10:45:13.3417	9,2506140E-002	3,6411581E-003
27/08/2025 10:45:16.7417	1,3705294E-001	3,6500588E-003
27/08/2025 10:45:20.1417	1,5614443E-001	3,6446727E-003
27/08/2025 10:45:23.5417	1,3705294E-001	3,6486455E-003
27/08/2025 10:45:26.9417	9,2506140E-002	3,6434119E-003
27/08/2025 10:45:30.3417	7,9778478E-002	3,6425334E-003
27/08/2025 10:45:33.7417	1,3068911E-001	3,6494476E-003
27/08/2025 10:45:37.1417	1,2432528E-001	3,6508993E-003
27/08/2025 10:45:40.5417	9,2506140E-002	3,6440995E-003
27/08/2025 10:45:43.9417	1,6887209E-001	3,6462389E-003
27/08/2025 10:45:47.3417	6,7050815E-002	3,6395157E-003
27/08/2025 10:45:50.7417	1,8159975E-001	3,6488364E-003
27/08/2025 10:45:54.1417	1,5614443E-001	3,6449784E-003
27/08/2025 10:45:57.5417	1,7523590E-001	3,6435646E-003
27/08/2025 10:46:00.9417	1,3068911E-001	3,6528474E-003
27/08/2025 10:46:04.3417	1,1796144E-001	3,6376058E-003
27/08/2025 10:46:07.7417	6,0686987E-002	3,6497151E-003
27/08/2025 10:46:11.1417	1,1796144E-001	3,6411199E-003
27/08/2025 10:46:14.5417	1,6250826E-001	3,6412729E-003
27/08/2025 10:46:17.8419	-2,6474460E+002	-9,7186133E-002
27/08/2025 10:46:21.2419	-2,6475732E+002	-1,2139324E-001
27/08/2025 10:46:24.6419	-2,6472549E+002	-1,3065255E-001
27/08/2025 10:46:28.0419	-2,6482733E+002	-1,3461292E-001
27/08/2025 10:46:31.4419	-2,6475095E+002	-1,3643427E-001
27/08/2025 10:46:34.8419	-2,6473187E+002	-1,3715965E-001
27/08/2025 10:46:38.2419	-2,6481461E+002	-1,3744420E-001
27/08/2025 10:46:41.6419	-2,6472549E+002	-1,3768280E-001
27/08/2025 10:46:45.0419	-2,6477005E+002	-1,3792245E-001
27/08/2025 10:46:48.4419	-2,6478278E+002	-1,3816564E-001
27/08/2025 10:46:51.8419	-2,6475095E+002	-1,3845012E-001
27/08/2025 10:46:55.2419	-2,6475095E+002	-1,3874191E-001
27/08/2025 10:46:58.6419	-2,6473825E+002	-1,3908903E-001
27/08/2025 10:47:02.0419	-2,6479550E+002	-1,3945216E-001
27/08/2025 10:47:05.4419	-2,6473825E+002	-1,3972068E-001
27/08/2025 10:47:08.8419	-2,6481461E+002	-1,4008868E-001
27/08/2025 10:47:12.2419	-2,6470639E+002	-1,4040689E-001
27/08/2025 10:47:15.6419	-2,6480188E+002	-1,4075312E-001
27/08/2025 10:47:19.0419	-2,6478915E+002	-1,4104982E-001
27/08/2025 10:47:22.4419	-2,6477643E+002	-1,4140634E-001
27/08/2025 10:47:25.8419	-2,6471277E+002	-1,4172205E-001
27/08/2025 10:47:29.2419	-2,6477005E+002	-1,4206307E-001
27/08/2025 10:47:32.6419	-2,6479550E+002	-1,4230078E-001
27/08/2025 10:47:36.0419	-2,6475095E+002	-1,4268482E-001
27/08/2025 10:47:39.4419	-2,6477643E+002	-1,4295946E-001
27/08/2025 10:47:42.8419	-2,6478915E+002	-1,4329505E-001
27/08/2025 10:47:46.2419	-2,6478915E+002	-1,4356719E-001
27/08/2025 10:47:49.6419	-2,6478915E+002	-1,4391601E-001
27/08/2025 10:47:53.0419	-2,6471915E+002	-1,4421420E-001
27/08/2025 10:47:56.4419	-2,6472549E+002	-1,4454250E-001
27/08/2025 10:47:59.8419	-2,6478278E+002	-1,4482589E-001
27/08/2025 10:48:03.2419	-2,6477005E+002	-1,4520732E-001
27/08/2025 10:48:06.6419	-2,6471915E+002	-1,4550726E-001
27/08/2025 10:48:10.0419	-2,6480823E+002	-1,4586313E-001
27/08/2025 10:48:13.4419	-2,6473187E+002	-1,4617920E-001
27/08/2025 10:48:16.8419	-2,6485278E+002	-1,4658125E-001
27/08/2025 10:48:20.1421	2,9157498E+002	1,0918447E-001
27/08/2025 10:48:23.5421	2,9155588E+002	1,3324691E-001
27/08/2025 10:48:26.9421	2,9161316E+002	1,4351822E-001
27/08/2025 10:48:30.3421	2,9156860E+002	1,4800397E-001
27/08/2025 10:48:33.7421	2,9151135E+002	1,4975940E-001
27/08/2025 10:48:37.1421	2,9160043E+002	1,5031520E-001
27/08/2025 10:48:40.5421	2,9156860E+002	1,5042987E-001
27/08/2025 10:48:43.9421	2,9162585E+002	1,5056735E-001
27/08/2025 10:48:47.3421	2,9158136E+002	1,5068474E-001
27/08/2025 10:48:50.7421	2,9161316E+002	1,5097773E-001
27/08/2025 10:48:54.1421	2,9158136E+002	1,5118723E-001
27/08/2025 10:48:57.5421	2,9153043E+002	1,5158300E-001
27/08/2025 10:49:00.9421	2,9161951E+002	1,5190881E-001
27/08/2025 10:49:04.3421	2,9160678E+002	1,5226865E-001
27/08/2025 10:49:07.7421	2,9163226E+002	1,5260199E-001
27/08/2025 10:49:11.1421	2,9160678E+002	1,5300079E-001
27/08/2025 10:49:14.5421	2,9160678E+002	1,5330359E-001
27/08/2025 10:49:17.9421	2,9156223E+002	1,5372063E-001
27/08/2025 10:49:21.3421	2,9159409E+002	1,5405235E-001
27/08/2025 10:49:24.7421	2,9160043E+002	1,5447919E-001
27/08/2025 10:49:28.1421	2,9162585E+002	1,5484051E-001
27/08/2025 10:49:31.5421	2,9168314E+002	1,5522501E-001
27/08/2025 10:49:34.9421	2,9152408E+002	1,5558545E-001
27/08/2025 10:49:38.3421	2,9160043E+002	1,5599947E-001
27/08/2025 10:49:41.7421	2,9163226E+002	1,5634906E-001
27/08/2025 10:49:45.1421	2,9167679E+002	1,5675114E-001
27/08/2025 10:49:48.5421	2,9160043E+002	1,5709166E-001
27/08/2025 10:49:51.9421	2,9153043E+002	1,5753937E-001
27/08/2025 10:49:55.3421	2,9153043E+002	1,5792219E-001
27/08/2025 10:49:58.7421	2,9158136E+002	1,5824988E-001
27/08/2025 10:50:02.1421	2,9153043E+002	1,5868148E-001
27/08/2025 10:50:05.5421	2,9160678E+002	1,5904827E-001
27/08/2025 10:50:08.9421	2,9160043E+002	1,5945370E-001
27/08/2025 10:50:12.3421	2,9160043E+002	1,5983130E-001
27/08/2025 10:50:15.7421	2,9158136E+002	1,6020894E-001
27/08/2025 10:50:19.0425	1,5614443E-001	3,1247197E-002
27/08/2025 10:50:22.4425	6,0686987E-002	1,4386754E-002
27/08/2025 10:50:25.8425	1,3705294E-001	7,8884996E-003
27/08/2025 10:50:29.2425	1,4341676E-001	5,2819471E-003
27/08/2025 10:50:32.6425	9,2506140E-002	4,3751644E-003
27/08/2025 10:50:36.0425	1,9432738E-001	4,2019673E-003
27/08/2025 10:50:39.4425	9,2506140E-002	4,2792065E-003
27/08/2025 10:50:42.8425	5,4323155E-002	4,4012163E-003
27/08/2025 10:50:46.2425	9,2506140E-002	4,4878148E-003
27/08/2025 10:50:49.6425	1,4341676E-001	4,5535946E-003
27/08/2025 10:50:53.0425	1,2432528E-001	4,5823976E-003
27/08/2025 10:50:56.4425	7,3414646E-002	4,5942776E-003
27/08/2025 10:50:59.8425	1,1796144E-001	4,6013827E-003
27/08/2025 10:51:03.2425	1,4978060E-001	4,6014972E-003
27/08/2025 10:51:06.6425	1,6887209E-001	4,5943917E-003
27/08/2025 10:51:10.0425	9,8869957E-002	4,5958818E-003
27/08/2025 10:51:13.4425	7,9778478E-002	4,5882040E-003
27/08/2025 10:51:16.8425	1,1159762E-001	4,5925966E-003
27/08/2025 10:51:20.2425	1,8796356E-001	4,5957668E-003
27/08/2025 10:51:23.6425	1,8796356E-001	4,5865993E-003
27/08/2025 10:51:27.0425	9,8869957E-002	4,5927498E-003
27/08/2025 10:51:30.4425	9,8869957E-002	4,5848424E-003
27/08/2025 10:51:33.8425	1,0523378E-001	4,5917947E-003
27/08/2025 10:51:37.2425	1,6887209E-001	4,5913360E-003
27/08/2025 10:51:40.6425	8,6142294E-002	4,5919470E-003
27/08/2025 10:51:44.0425	1,1796144E-001	4,5895404E-003
27/08/2025 10:51:47.4425	1,5614443E-001	4,5950031E-003
27/08/2025 10:51:50.8425	1,5614443E-001	4,5897700E-003
27/08/2025 10:51:54.2425	1,7523590E-001	4,5840014E-003
27/08/2025 10:51:57.6425	1,1159762E-001	4,5888526E-003
27/08/2025 10:52:01.0425	1,1796144E-001	4,5913742E-003
27/08/2025 10:52:04.4425	1,4978060E-001	4,5834668E-003
27/08/2025 10:52:07.8425	9,8869957E-002	4,5807166E-003
27/08/2025 10:52:11.2425	1,2432528E-001	4,5898082E-003
27/08/2025 10:52:14.6425	2,0705505E-001	4,5773168E-003
27/08/2025 10:52:17.9427	-2,9132629E+002	-1,0763092E-001
27/08/2025 10:52:21.3427	-2,9131995E+002	-1,3341628E-001
27/08/2025 10:52:24.7427	-2,9137723E+002	-1,4348799E-001
27/08/2025 10:52:28.1427	-2,9135812E+002	-1,4791335E-001
27/08/2025 10:52:31.5427	-2,9133267E+002	-1,4983490E-001
27/08/2025 10:52:34.9427	-2,9134540E+002	-1,5068802E-001
27/08/2025 10:52:38.3427	-2,9130722E+002	-1,5106665E-001
27/08/2025 10:52:41.7427	-2,9133902E+002	-1,5126941E-001
27/08/2025 10:52:45.1427	-2,9136447E+002	-1,5152623E-001
27/08/2025 10:52:48.5427	-2,9128812E+002	-1,5182668E-001
27/08/2025 10:52:51.9427	-2,9128812E+002	-1,5217203E-001
27/08/2025 10:52:55.3427	-2,9135178E+002	-1,5248550E-001
27/08/2025 10:52:58.7427	-2,9130722E+002	-1,5284488E-001
27/08/2025 10:53:02.1427	-2,9136447E+002	-1,5322718E-001
27/08/2025 10:53:05.5427	-2,9137088E+002	-1,5361339E-001
27/08/2025 10:53:08.9427	-2,9135812E+002	-1,5391524E-001
27/08/2025 10:53:12.3427	-2,9136447E+002	-1,5432753E-001
27/08/2025 10:53:15.7427	-2,9124994E+002	-1,5467460E-001
27/08/2025 10:53:19.1427	-2,9134540E+002	-1,5509006E-001
27/08/2025 10:53:22.5427	-2,9138995E+002	-1,5538126E-001
27/08/2025 10:53:25.9427	-2,9131995E+002	-1,5576260E-001
27/08/2025 10:53:29.3427	-2,9126266E+002	-1,5612294E-001
27/08/2025 10:53:32.7427	-2,9133267E+002	-1,5650055E-001
27/08/2025 10:53:36.1427	-2,9133267E+002	-1,5678911E-001
27/08/2025 10:53:39.5427	-2,9138995E+002	-1,5721881E-001
27/08/2025 10:53:42.9427	-2,9131360E+002	-1,5752421E-001
27/08/2025 10:53:46.3427	-2,9132629E+002	-1,5793632E-001
27/08/2025 10:53:49.7427	-2,9126904E+002	-1,5824814E-001
27/08/2025 10:53:53.1427	-2,9139630E+002	-1,5867396E-001
27/08/2025 10:53:56.5427	-2,9131995E+002	-1,5902340E-001
27/08/2025 10:53:59.9427	-2,9129449E+002	-1,5942672E-001
27/08/2025 10:54:03.3427	-2,9133902E+002	-1,5974607E-001
27/08/2025 10:54:06.7427	-2,9135178E+002	-1,6020902E-001
27/08/2025 10:54:10.1427	-2,9128812E+002	-1,6053721E-001
27/08/2025 10:54:13.5427	-2,9128812E+002	-1,6096407E-001
27/08/2025 10:54:16.9427	-2,9133902E+002	-1,6134740E-001
27/08/2025 10:54:20.2429	3,1815671E+002	1,2054446E-001
27/08/2025 10:54:23.6429	3,1822031E+002	1,4635485E-001
27/08/2025 10:54:27.0429	3,1822668E+002	1,5765882E-001
27/08/2025 10:54:30.4429	3,1819489E+002	1,6251342E-001
27/08/2025 10:54:33.8429	3,1820761E+002	1,6448741E-001
27/08/2025 10:54:37.2429	3,1819489E+002	1,6502501E-001
27/08/2025 10:54:40.6429	3,1815033E+002	1,6526642E-001
27/08/2025 10:54:44.0429	3,1822031E+002	1,6534084E-001
27/08/2025 10:54:47.4429	3,1818851E+002	1,6558005E-001
27/08/2025 10:54:50.8429	3,1827124E+002	1,6581577E-001
27/08/2025 10:54:54.2429	3,1811853E+002	1,6616003E-001
27/08/2025 10:54:57.6429	3,1812488E+002	1,6646452E-001
27/08/2025 10:55:01.0429	3,1816302E+002	1,6694766E-001
27/08/2025 10:55:04.4429	3,1821399E+002	1,6728672E-001
27/08/2025 10:55:07.8429	3,1816940E+002	1,6775927E-001
27/08/2025 10:55:11.2429	3,1814395E+002	1,6814037E-001
27/08/2025 10:55:14.6429	3,1812488E+002	1,6860434E-001
27/08/2025 10:55:18.0429	3,1815671E+002	1,6901976E-001
27/08/2025 10:55:21.4429	3,1818851E+002	1,6943581E-001
27/08/2025 10:55:24.8429	3,1809943E+002	1,6983922E-001
27/08/2025 10:55:28.2429	3,1815033E+002	1,7033365E-001
27/08/2025 10:55:31.6429	3,1816302E+002	1,7070174E-001
27/08/2025 10:55:35.0429	3,1809943E+002	1,7114963E-001
27/08/2025 10:55:38.4429	3,1818216E+002	1,7155641E-001
27/08/2025 10:55:41.8429	3,1811853E+002	1,7203330E-001
27/08/2025 10:55:45.2429	3,1815671E+002	1,7245388E-001
27/08/2025 10:55:48.6429	3,1814395E+002	1,7283522E-001
27/08/2025 10:55:52.0429	3,1814395E+002	1,7329812E-001
27/08/2025 10:55:55.4429	3,1818216E+002	1,7377478E-001
27/08/2025 10:55:58.8429	3,1813126E+002	1,7421760E-001
27/08/2025 10:56:02.2429	3,1813760E+002	1,7463355E-001
27/08/2025 10:56:05.6429	3,1816940E+002	1,7508164E-001
27/08/2025 10:56:09.0429	3,1813126E+002	1,7553827E-001
27/08/2025 10:56:12.4429	3,1815033E+002	1,7602107E-001
27/08/2025 10:56:15.8429	3,1819489E+002	1,7640662E-001
27/08/2025 10:56:19.1433	1,4341676E-001	3,3825289E-002
27/08/2025 10:56:22.5433	1,2432528E-001	1,5964285E-002
27/08/2025 10:56:25.9433	9,8869957E-002	9,0407152E-003
27/08/2025 10:56:29.3433	1,5614443E-001	6,2798364E-003
27/08/2025 10:56:32.7433	1,9432738E-001	5,2848123E-003
27/08/2025 10:56:36.1433	9,2506140E-002	5,1121498E-003
27/08/2025 10:56:39.5433	1,1796144E-001	5,1910705E-003
27/08/2025 10:56:42.9433	1,7523590E-001	5,3191921E-003
27/08/2025 10:56:46.3433	7,9778478E-002	5,4292069E-003
27/08/2025 10:56:49.7433	9,2506140E-002	5,4861247E-003
27/08/2025 10:56:53.1433	1,0523378E-001	5,5260430E-003
27/08/2025 10:56:56.5433	1,4978060E-001	5,5428892E-003
27/08/2025 10:56:59.9433	9,2506140E-002	5,5484283E-003
27/08/2025 10:57:03.3433	1,0523378E-001	5,5503761E-003
27/08/2025 10:57:06.7433	1,1796144E-001	5,5443407E-003
27/08/2025 10:57:10.1433	1,5614443E-001	5,5378084E-003
27/08/2025 10:57:13.5433	1,6250826E-001	5,5355933E-003
27/08/2025 10:57:16.9433	1,6250826E-001	5,5322312E-003
27/08/2025 10:57:20.3433	7,3414646E-002	5,5394131E-003
27/08/2025 10:57:23.7433	9,8869957E-002	5,5348286E-003
27/08/2025 10:57:27.1433	1,3068911E-001	5,5332626E-003
27/08/2025 10:57:30.5433	1,7523590E-001	5,5299010E-003
27/08/2025 10:57:33.9433	1,0523378E-001	5,5284114E-003
27/08/2025 10:57:37.3433	1,8159975E-001	5,5343704E-003
27/08/2025 10:57:40.7433	1,0523378E-001	5,5340268E-003
27/08/2025 10:57:44.1433	1,2432528E-001	5,5344468E-003
27/08/2025 10:57:47.5433	1,4341676E-001	5,5347905E-003
27/08/2025 10:57:50.9433	1,0523378E-001	5,5375793E-003
27/08/2025 10:57:54.3433	6,7050815E-002	5,5375029E-003
27/08/2025 10:57:57.7433	1,3705294E-001	5,5376170E-003
27/08/2025 10:58:01.1433	1,4978060E-001	5,5320021E-003
27/08/2025 10:58:04.5433	9,2506140E-002	5,5305124E-003
27/08/2025 10:58:07.9433	1,3705294E-001	5,5292896E-003
27/08/2025 10:58:11.3433	1,4341676E-001	5,5379611E-003
27/08/2025 10:58:14.7433	1,3068911E-001	5,5348286E-003
27/08/2025 10:58:18.0435	-3,1786984E+002	-1,1833373E-001
27/08/2025 10:58:21.4435	-3,1785074E+002	-1,4562114E-001
27/08/2025 10:58:24.8435	-3,1781894E+002	-1,5657881E-001
27/08/2025 10:58:28.2435	-3,1783801E+002	-1,6143949E-001
27/08/2025 10:58:31.6435	-3,1791440E+002	-1,6350678E-001
27/08/2025 10:58:35.0435	-3,1784433E+002	-1,6442494E-001
27/08/2025 10:58:38.4435	-3,1787619E+002	-1,6481005E-001
27/08/2025 10:58:41.8435	-3,1783801E+002	-1,6512182E-001
27/08/2025 10:58:45.2435	-3,1786346E+002	-1,6536443E-001
27/08/2025 10:58:48.6435	-3,1786346E+002	-1,6567247E-001
27/08/2025 10:58:52.0435	-3,1782526E+002	-1,6604294E-001
27/08/2025 10:58:55.4435	-3,1783163E+002	-1,6643341E-001
27/08/2025 10:58:58.8435	-3,1780618E+002	-1,6673695E-001
27/08/2025 10:59:02.2435	-3,1778708E+002	-1,6720015E-001
27/08/2025 10:59:05.6435	-3,1788254E+002	-1,6755563E-001
27/08/2025 10:59:09.0435	-3,1786346E+002	-1,6800089E-001
27/08/2025 10:59:12.4435	-3,1789529E+002	-1,6833697E-001
27/08/2025 10:59:15.8435	-3,1784433E+002	-1,6878800E-001
27/08/2025 10:59:19.2435	-3,1783801E+002	-1,6918908E-001
27/08/2025 10:59:22.6435	-3,1781894E+002	-1,6959488E-001
27/08/2025 10:59:26.0435	-3,1785712E+002	-1,6997384E-001
27/08/2025 10:59:29.4435	-3,1782526E+002	-1,7046067E-001
27/08/2025 10:59:32.8435	-3,1784433E+002	-1,7085384E-001
27/08/2025 10:59:36.2435	-3,1780618E+002	-1,7131004E-001
27/08/2025 10:59:39.6435	-3,1785074E+002	-1,7172094E-001
27/08/2025 10:59:43.0435	-3,1779346E+002	-1,7219873E-001
27/08/2025 10:59:46.4435	-3,1787619E+002	-1,7262965E-001
27/08/2025 10:59:49.8435	-3,1778073E+002	-1,7301975E-001
27/08/2025 10:59:53.2435	-3,1782526E+002	-1,7344311E-001
27/08/2025 10:59:56.6435	-3,1788892E+002	-1,7393804E-001
27/08/2025 11:00:00.0435	-3,1788892E+002	-1,7435372E-001
27/08/2025 11:00:03.4435	-3,1781256E+002	-1,7477891E-001
27/08/2025 11:00:06.8435	-3,1788892E+002	-1,7523044E-001
27/08/2025 11:00:10.2435	-3,1786346E+002	-1,7571084E-001
27/08/2025 11:00:13.6435	-3,1778073E+002	-1,7615579E-001
27/08/2025 11:00:17.0435	-3,1790161E+002	-1,7652363E-001
27/08/2025 11:00:17.1437	-3,1792075E+002	-1,7668404E-001