File: data/phase_2a/Sergey/1/20.7/02 polarisation/SN50_C5D2E1_hr_0,1MFeCN6_in_1M_KCl_3306mL_symmetric_balanced_4_point_PEIS_10mHz_200kHz_10mV_04_CA_C16.txt
time/s	<I>/mA	Ewe/V
27/08/2025 11:00:18.2421	1,248228186148849E+002	-2,0735073E-003
27/08/2025 11:00:23.2421	2,108843981933593E+001	-2,1117069E-003
27/08/2025 11:00:28.2421	7,943235246086118E+000	-2,0735073E-003
27/08/2025 11:00:33.2421	6,449292980289457E+000	-2,0353077E-003
27/08/2025 11:00:38.2421	7,069109622383110E+000	-2,0735073E-003
27/08/2025 11:00:43.2421	7,556292376899719E+000	-2,2072061E-003
27/08/2025 11:00:48.2421	7,743228336715696E+000	-2,1117069E-003
27/08/2025 11:00:53.2421	7,787613709735837E+000	-2,1308069E-003
27/08/2025 11:00:58.2421	7,773297423362727E+000	-2,1117069E-003
27/08/2025 11:01:03.2421	7,737327363491062E+000	-2,0162079E-003
27/08/2025 11:01:08.2421	7,697816027450557E+000	-2,1117069E-003
27/08/2025 11:01:13.2421	7,673655045509338E+000	-2,1690065E-003
27/08/2025 11:01:18.2421	7,648020076942430E+000	-2,0735073E-003
27/08/2025 11:01:23.2421	7,626306626415250E+000	-2,2072061E-003
27/08/2025 11:01:28.2421	7,600865051460261E+000	-2,0926071E-003
27/08/2025 11:01:33.2421	7,572203355407709E+000	-2,2072061E-003
27/08/2025 11:01:38.2421	7,545801011657716E+000	-2,1308069E-003
27/08/2025 11:01:43.2421	7,528711254978177E+000	-2,1499067E-003
27/08/2025 11:01:48.2421	7,497078773212422E+000	-2,1308069E-003
27/08/2025 11:01:53.2421	7,470859566593166E+000	-2,1690065E-003
27/08/2025 11:01:58.2421	7,443965960788724E+000	-2,1117069E-003
27/08/2025 11:02:03.2421	7,424235697746241E+000	-2,1117069E-003
27/08/2025 11:02:08.2421	7,401835793304429E+000	-2,0735073E-003
27/08/2025 11:02:13.2421	7,368922372055039E+000	-2,1117069E-003
27/08/2025 11:02:18.2421	7,349405584239960E+000	-2,1690065E-003
27/08/2025 11:02:23.2421	7,318007773685423E+000	-2,1499067E-003
27/08/2025 11:02:28.2421	7,301046947765343E+000	-2,0544075E-003
27/08/2025 11:02:33.2421	7,274826741600037E+000	-2,1308069E-003
27/08/2025 11:02:38.2421	7,261942116737345E+000	-2,1117069E-003
27/08/2025 11:02:43.2421	7,231320882415771E+000	-2,1117069E-003
27/08/2025 11:02:48.2421	7,197532453060120E+000	-2,1308069E-003
27/08/2025 11:02:53.2421	7,173008850860597E+000	-2,1881063E-003
27/08/2025 11:02:58.2421	7,146949942970281E+000	-2,0926071E-003
27/08/2025 11:03:03.2421	7,124369509506209E+000	-2,1690065E-003
27/08/2025 11:03:08.2421	7,096883469295506E+000	-2,0544075E-003
27/08/2025 11:03:13.2421	7,070165919780735E+000	-2,0735073E-003
27/08/2025 11:03:18.2421	7,050455159282677E+000	-2,1499067E-003
27/08/2025 11:03:23.2421	7,030828414535520E+000	-2,1690065E-003
27/08/2025 11:03:28.2421	7,010540772914879E+000	-2,1308069E-003
27/08/2025 11:03:33.2421	6,988197532081585E+000	-2,1308069E-003
27/08/2025 11:03:38.2421	6,965856449031826E+000	-2,0735073E-003
27/08/2025 11:03:43.2421	6,940733876895905E+000	-2,1881063E-003
27/08/2025 11:03:48.2421	6,912280914497373E+000	-2,1117069E-003
27/08/2025 11:03:53.2421	6,899281200027460E+000	-2,1881063E-003
27/08/2025 11:03:58.2421	6,878174688243867E+000	-2,1308069E-003
27/08/2025 11:04:03.2421	6,846701208496086E+000	-2,0735073E-003
27/08/2025 11:04:08.2421	6,831266505050650E+000	-2,0735073E-003
27/08/2025 11:04:13.2421	6,806901701164250E+000	-2,0162079E-003
27/08/2025 11:04:18.2421	6,785444647884368E+000	-2,0544075E-003
27/08/2025 11:04:23.2421	6,761995837116238E+000	-2,1117069E-003
27/08/2025 11:04:28.2421	6,739580066967008E+000	-2,0735073E-003
27/08/2025 11:04:33.2421	6,718530484867074E+000	-2,1690065E-003
27/08/2025 11:04:38.2421	6,701375767612461E+000	-2,1117069E-003
27/08/2025 11:04:43.2421	6,672782350158691E+000	-2,1117069E-003
27/08/2025 11:04:48.2421	6,661391835689535E+000	-2,1308069E-003
27/08/2025 11:04:53.2421	6,638402991104122E+000	-2,2454057E-003
27/08/2025 11:04:58.2421	6,614874545001967E+000	-2,0544075E-003
27/08/2025 11:05:03.2421	6,592806520652772E+000	-2,1499067E-003
27/08/2025 11:05:08.2421	6,571845142364509E+000	-2,1499067E-003
27/08/2025 11:05:13.2421	6,547621283817289E+000	-2,1117069E-003
27/08/2025 11:05:18.2421	6,527488573551167E+000	-2,2072061E-003
27/08/2025 11:05:23.2421	6,511700306034072E+000	-2,1499067E-003
27/08/2025 11:05:28.2421	6,485422020339968E+000	-2,1690065E-003
27/08/2025 11:05:33.2421	6,467827811527251E+000	-2,1308069E-003
27/08/2025 11:05:38.2421	6,441945435047153E+000	-2,0926071E-003
27/08/2025 11:05:43.2421	6,425541118621808E+000	-1,9971081E-003
27/08/2025 11:05:48.2421	6,409267247200006E+000	-2,0735073E-003
27/08/2025 11:05:53.2421	6,383549142932893E+000	-2,0162079E-003
27/08/2025 11:05:58.2421	6,357569504356377E+000	-2,0735073E-003
27/08/2025 11:06:03.2421	6,347548874950405E+000	-2,1499067E-003
27/08/2025 11:06:08.2421	6,328231749820709E+000	-2,1117069E-003
27/08/2025 11:06:13.2421	6,308259795761103E+000	-2,1499067E-003
27/08/2025 11:06:18.2421	6,287162911415095E+000	-2,2263059E-003
27/08/2025 11:06:23.2421	6,271656988239288E+000	-2,1690065E-003
27/08/2025 11:06:28.2421	6,246941750240310E+000	-2,0926071E-003
27/08/2025 11:06:33.2421	6,222546390533438E+000	-2,1308069E-003
27/08/2025 11:06:38.2421	6,204920664024350E+000	-2,0735073E-003
27/08/2025 11:06:43.2421	6,182151759433747E+000	-2,1499067E-003
27/08/2025 11:06:48.2421	6,172873495864868E+000	-2,1690065E-003
27/08/2025 11:06:53.2421	6,146000539588911E+000	-2,0544075E-003
27/08/2025 11:06:58.2421	6,128687310981746E+000	-2,1690065E-003
27/08/2025 11:07:03.2421	6,111799047851562E+000	-2,0735073E-003
27/08/2025 11:07:08.2421	6,091147105026238E+000	-2,1499067E-003
27/08/2025 11:07:13.2421	6,075645999050138E+000	-1,9780083E-003
27/08/2025 11:07:18.2421	6,054840241432174E+000	-2,0926071E-003
27/08/2025 11:07:23.2421	6,036512262535098E+000	-2,1117069E-003
27/08/2025 11:07:28.2421	6,015648745536801E+000	-2,1308069E-003
27/08/2025 11:07:33.2421	5,996411377811430E+000	-2,1499067E-003
27/08/2025 11:07:38.2421	5,975409849548342E+000	-2,1499067E-003
27/08/2025 11:07:43.2421	5,960632805252075E+000	-2,1499067E-003
27/08/2025 11:07:48.2421	5,939986759853358E+000	-2,0544075E-003
27/08/2025 11:07:53.2421	5,919686151981352E+000	-2,1881063E-003
27/08/2025 11:07:58.2421	5,903994545650482E+000	-2,1881063E-003
27/08/2025 11:08:03.2421	5,888261967945084E+000	-2,0544075E-003
27/08/2025 11:08:08.2421	5,869487219715118E+000	-1,9971081E-003
27/08/2025 11:08:13.2421	5,846807365036007E+000	-2,1499067E-003
27/08/2025 11:08:18.2421	5,825165862369531E+000	-2,1117069E-003
27/08/2025 11:08:23.2421	5,808890988063794E+000	-2,2836053E-003
27/08/2025 11:08:28.2421	5,798255563449843E+000	-2,1117069E-003
27/08/2025 11:08:33.2421	5,781322465705871E+000	-2,1117069E-003
27/08/2025 11:08:38.2421	5,764795179462425E+000	-2,1881063E-003
27/08/2025 11:08:43.2421	5,754804656887053E+000	-2,0926071E-003
27/08/2025 11:08:48.2421	5,735383490848541E+000	-2,1117069E-003
27/08/2025 11:08:53.2421	5,712408176708216E+000	-2,0735073E-003
27/08/2025 11:08:58.2421	5,695491659641263E+000	-2,0162079E-003
27/08/2025 11:09:03.2421	5,675427723312382E+000	-2,2072061E-003
27/08/2025 11:09:08.2421	5,659004108715060E+000	-2,1308069E-003
27/08/2025 11:09:13.2421	5,643365707588188E+000	-1,9971081E-003
27/08/2025 11:09:18.2421	5,620292553901670E+000	-2,1308069E-003
27/08/2025 11:09:23.2421	5,604835592269893E+000	-2,1308069E-003
27/08/2025 11:09:28.2421	5,593432330894466E+000	-2,1690065E-003
27/08/2025 11:09:33.2421	5,571214712715147E+000	-2,1308069E-003
27/08/2025 11:09:38.2421	5,550371944236758E+000	-2,0735073E-003
27/08/2025 11:09:43.2421	5,535857682514191E+000	-1,9780083E-003
27/08/2025 11:09:48.2421	5,518357674217221E+000	-2,1690065E-003
27/08/2025 11:09:53.2421	5,507405432319629E+000	-2,0926071E-003
27/08/2025 11:09:58.2421	5,482521224880202E+000	-2,1117069E-003
27/08/2025 11:10:03.2421	5,472117422485351E+000	-2,0735073E-003
27/08/2025 11:10:08.2421	5,452028386211389E+000	-2,0926071E-003
27/08/2025 11:10:13.2421	5,431079979419700E+000	-2,0544075E-003
27/08/2025 11:10:18.2421	5,417121067905413E+000	-2,0544075E-003
27/08/2025 11:10:23.2421	5,401525628280623E+000	-2,1117069E-003
27/08/2025 11:10:28.2421	5,392278644180298E+000	-1,9971081E-003
27/08/2025 11:10:33.2421	5,361434743785850E+000	-2,1117069E-003
27/08/2025 11:10:38.2421	5,348031092357633E+000	-2,0544075E-003
27/08/2025 11:10:43.2421	5,339241513347625E+000	-2,0353077E-003
27/08/2025 11:10:48.2421	5,327341961097716E+000	-2,1499067E-003
27/08/2025 11:10:53.2421	5,304345759010303E+000	-2,1499067E-003
27/08/2025 11:10:58.2421	5,291942574882507E+000	-2,1499067E-003
27/08/2025 11:11:03.2421	5,277084527969350E+000	-2,1117069E-003
27/08/2025 11:11:08.2421	5,258013595867155E+000	-2,2263059E-003
27/08/2025 11:11:13.2421	5,242262902736655E+000	-2,1499067E-003
27/08/2025 11:11:18.2421	5,226637464523307E+000	-2,2454057E-003
27/08/2025 11:11:23.2421	5,207057125568383E+000	-2,1308069E-003
27/08/2025 11:11:28.2421	5,194885899543749E+000	-2,1308069E-003
27/08/2025 11:11:33.2421	5,174599048328389E+000	-2,1499067E-003
27/08/2025 11:11:38.2421	5,159137647628782E+000	-2,0926071E-003
27/08/2025 11:11:43.2421	5,142823046684256E+000	-2,1499067E-003
27/08/2025 11:11:48.2421	5,122833241367340E+000	-2,1690065E-003
27/08/2025 11:11:53.2421	5,107038530540464E+000	-2,1308069E-003
27/08/2025 11:11:58.2421	5,100591202259062E+000	-2,1117069E-003
27/08/2025 11:12:03.2421	5,075513676166537E+000	-2,1499067E-003
27/08/2025 11:12:08.2421	5,060104340839386E+000	-2,1499067E-003
27/08/2025 11:12:13.2421	5,042316433238983E+000	-2,1499067E-003
27/08/2025 11:12:18.2421	5,030817100524899E+000	-2,1308069E-003
27/08/2025 11:12:23.2421	5,020133316040031E+000	-2,0926071E-003
27/08/2025 11:12:28.2421	5,005413613891598E+000	-2,1308069E-003
27/08/2025 11:12:33.2421	4,983634344863887E+000	-2,2072061E-003
27/08/2025 11:12:38.2421	4,970123419761649E+000	-2,1499067E-003
27/08/2025 11:12:43.2421	4,950021412181840E+000	-2,1308069E-003
27/08/2025 11:12:48.2421	4,936402655506129E+000	-2,0926071E-003
27/08/2025 11:12:53.2421	4,921934624481199E+000	-1,9971081E-003
27/08/2025 11:12:58.2421	4,909621236991883E+000	-2,1308069E-003
27/08/2025 11:13:03.2421	4,887597047138215E+000	-2,1308069E-003
27/08/2025 11:13:08.2421	4,873983237838743E+000	-2,0735073E-003
27/08/2025 11:13:13.2421	4,863007657051078E+000	-2,1308069E-003
27/08/2025 11:13:18.2421	4,849151918411252E+000	-2,1117069E-003
27/08/2025 11:13:23.2421	4,831946937561028E+000	-2,1308069E-003
27/08/2025 11:13:28.2421	4,813892257499695E+000	-2,0926071E-003
27/08/2025 11:13:33.2421	4,805687799930574E+000	-2,1881063E-003
27/08/2025 11:13:38.2421	4,800918224620816E+000	-1,9971081E-003
27/08/2025 11:13:43.2421	4,774969552516938E+000	-2,1881063E-003
27/08/2025 11:13:48.2421	4,759368057727805E+000	-2,1499067E-003
27/08/2025 11:13:53.2421	4,745886743545533E+000	-2,1499067E-003
27/08/2025 11:13:58.2421	4,729238368511190E+000	-2,1117069E-003
27/08/2025 11:14:03.2421	4,711963821697225E+000	-2,1308069E-003
27/08/2025 11:14:08.2421	4,701021228504178E+000	-2,1117069E-003
27/08/2025 11:14:13.2421	4,684264993667597E+000	-2,0926071E-003
27/08/2025 11:14:18.2421	4,674371159172054E+000	-2,0544075E-003
27/08/2025 11:14:23.2421	4,659877474403373E+000	-2,0544075E-003
27/08/2025 11:14:28.2421	4,645288837909696E+000	-2,1308069E-003
27/08/2025 11:14:33.2421	4,638378613853455E+000	-2,1690065E-003
27/08/2025 11:14:38.2421	4,621739471817008E+000	-2,1690065E-003
27/08/2025 11:14:43.2421	4,605100800037377E+000	-2,2072061E-003
27/08/2025 11:14:48.2421	4,586697413444512E+000	-2,1499067E-003
27/08/2025 11:14:53.2421	4,572717969894413E+000	-2,0544075E-003
27/08/2025 11:14:58.2421	4,555980817031852E+000	-2,1117069E-003
27/08/2025 11:15:03.2421	4,541247433948513E+000	-2,0162079E-003
27/08/2025 11:15:08.2421	4,533662436962118E+000	-2,1308069E-003
27/08/2025 11:15:13.2421	4,457162012290951E+000	-2,1308069E-003
27/08/2025 11:15:18.2421	4,445795001220702E+000	-2,1881063E-003
27/08/2025 11:15:23.2421	4,435560896587361E+000	-2,2072061E-003
27/08/2025 11:15:28.2421	4,416603742408739E+000	-2,1308069E-003
27/08/2025 11:15:33.2421	4,402397603034974E+000	-2,0544075E-003
27/08/2025 11:15:38.2421	4,396495844173430E+000	-2,1308069E-003
27/08/2025 11:15:43.2421	4,381155161380761E+000	-2,1499067E-003
27/08/2025 11:15:48.2421	4,372806406497958E+000	-2,1499067E-003
27/08/2025 11:15:53.2421	4,357260317134852E+000	-2,0735073E-003
27/08/2025 11:15:58.2421	4,343747962570191E+000	-2,0735073E-003
27/08/2025 11:16:03.2421	4,331744526481629E+000	-2,1117069E-003
27/08/2025 11:16:08.2421	4,318234828376767E+000	-2,0735073E-003
27/08/2025 11:16:13.2421	4,306396378326419E+000	-2,1308069E-003
27/08/2025 11:16:18.2421	4,285202808761596E+000	-2,2645055E-003
27/08/2025 11:16:23.2421	4,276154434394833E+000	-2,1499067E-003
27/08/2025 11:16:28.2421	4,259561927413941E+000	-2,0544075E-003
27/08/2025 11:16:33.2421	4,243128581428522E+000	-2,0926071E-003
27/08/2025 11:16:38.2421	4,234207541561126E+000	-2,0353077E-003
27/08/2025 11:16:43.2421	4,222308717727657E+000	-2,2072061E-003
27/08/2025 11:16:48.2421	4,210497198390954E+000	-2,0353077E-003
27/08/2025 11:16:53.2421	4,196417914581289E+000	-2,1308069E-003
27/08/2025 11:16:58.2421	4,183987689781183E+000	-2,1308069E-003
27/08/2025 11:17:03.2421	4,177243075656889E+000	-2,1117069E-003
27/08/2025 11:17:08.2421	4,162866429042808E+000	-2,1690065E-003
27/08/2025 11:17:13.2421	4,151590900325772E+000	-2,0544075E-003
27/08/2025 11:17:18.2421	4,134191021823883E+000	-2,1881063E-003
27/08/2025 11:17:23.2421	4,124522030448915E+000	-2,0926071E-003
27/08/2025 11:17:28.2421	4,108966268348695E+000	-2,0926071E-003
27/08/2025 11:17:33.2421	4,097113229370109E+000	-1,9971081E-003
27/08/2025 11:17:38.2421	4,078324374294279E+000	-2,0735073E-003
27/08/2025 11:17:43.2421	4,078646565151210E+000	-2,2263059E-003
27/08/2025 11:17:48.2421	4,061978228759763E+000	-2,0353077E-003
27/08/2025 11:17:53.2421	4,050706844139098E+000	-2,1690065E-003
27/08/2025 11:17:58.2421	4,042079473257063E+000	-2,0926071E-003
27/08/2025 11:18:03.2421	4,025538036823271E+000	-2,0735073E-003
27/08/2025 11:18:08.2421	4,017233744144441E+000	-2,1690065E-003
27/08/2025 11:18:13.2421	3,996506887722013E+000	-2,1117069E-003
27/08/2025 11:18:18.2421	3,987256106662748E+000	-1,9780083E-003
27/08/2025 11:18:23.2421	3,975564865303028E+000	-2,1690065E-003
27/08/2025 11:18:28.2421	3,959391960668562E+000	-2,0735073E-003
27/08/2025 11:18:33.2421	3,951070546102524E+000	-2,1881063E-003
27/08/2025 11:18:38.2421	3,941922799062731E+000	-2,0353077E-003
27/08/2025 11:18:43.2421	3,930334514188765E+000	-2,2263059E-003
27/08/2025 11:18:48.2421	3,916600420188885E+000	-2,1690065E-003
27/08/2025 11:18:53.2421	3,906745188713074E+000	-2,1499067E-003
27/08/2025 11:18:58.2421	3,899367719793318E+000	-2,0926071E-003
27/08/2025 11:19:03.2421	3,887638049745558E+000	-2,2645055E-003
27/08/2025 11:19:08.2421	3,869020422124862E+000	-2,1499067E-003
27/08/2025 11:19:13.2421	3,864909760904311E+000	-2,1117069E-003
27/08/2025 11:19:18.2421	3,848745841693876E+000	-2,1308069E-003
27/08/2025 11:19:23.2421	3,843755937957763E+000	-2,1308069E-003
27/08/2025 11:19:28.2421	3,830533185720427E+000	-2,1881063E-003
27/08/2025 11:19:33.2421	3,814875209045404E+000	-2,0926071E-003
27/08/2025 11:19:38.2421	3,798343980646131E+000	-1,9589085E-003
27/08/2025 11:19:43.2421	3,790174001932144E+000	-2,1308069E-003
27/08/2025 11:19:48.2421	3,779265106487259E+000	-2,1117069E-003
27/08/2025 11:19:53.2421	3,769734820365905E+000	-2,0544075E-003
27/08/2025 11:19:58.2421	3,753275822257990E+000	-2,0735073E-003
27/08/2025 11:20:03.2421	3,740579397726055E+000	-2,0162079E-003
27/08/2025 11:20:08.2421	3,733384317874894E+000	-2,1117069E-003
27/08/2025 11:20:13.2421	3,728139333915692E+000	-2,1117069E-003
27/08/2025 11:20:18.2421	3,708139279747002E+000	-2,1690065E-003
27/08/2025 11:20:23.2421	3,701228594160080E+000	-2,0353077E-003
27/08/2025 11:20:28.2421	3,688438727426529E+000	-2,1308069E-003
27/08/2025 11:20:33.2421	3,678170335721958E+000	-2,0735073E-003
27/08/2025 11:20:38.2421	3,665030832958223E+000	-2,1690065E-003
27/08/2025 11:20:43.2421	3,651782499837875E+000	-2,1308069E-003
27/08/2025 11:20:48.2421	3,640961400270462E+000	-2,0735073E-003
27/08/2025 11:20:53.2421	3,629258559560768E+000	-2,1690065E-003
27/08/2025 11:20:58.2421	3,620504385232925E+000	-2,0162079E-003
27/08/2025 11:21:03.2421	3,609086499118805E+000	-2,0735073E-003
27/08/2025 11:21:08.2421	3,600184209203720E+000	-2,0735073E-003
27/08/2025 11:21:13.2421	3,593739090347285E+000	-2,1117069E-003
27/08/2025 11:21:18.2421	3,582408464813231E+000	-2,0926071E-003
27/08/2025 11:21:23.2421	3,568997726297368E+000	-2,1308069E-003
27/08/2025 11:21:28.2421	3,561390983295439E+000	-2,1881063E-003
27/08/2025 11:21:33.2421	3,544964996385573E+000	-2,2263059E-003
27/08/2025 11:21:38.2421	3,536350137710571E+000	-2,1117069E-003
27/08/2025 11:21:43.2421	3,526420171451566E+000	-2,1308069E-003
27/08/2025 11:21:48.2421	3,515804134035108E+000	-2,1690065E-003
27/08/2025 11:21:53.2421	3,504875032329551E+000	-2,1881063E-003
27/08/2025 11:21:58.2421	3,496390869760511E+000	-2,1690065E-003
27/08/2025 11:22:03.2421	3,479488403415676E+000	-2,2263059E-003
27/08/2025 11:22:08.2421	3,473558683013914E+000	-2,2263059E-003
27/08/2025 11:22:13.2421	3,456015818929672E+000	-2,1499067E-003
27/08/2025 11:22:18.2421	3,445108872938155E+000	-2,1499067E-003
27/08/2025 11:22:23.2421	3,437308171415324E+000	-2,1881063E-003
27/08/2025 11:22:28.2421	3,426345694828029E+000	-2,0544075E-003
27/08/2025 11:22:33.2421	3,412269941806784E+000	-2,1117069E-003
27/08/2025 11:22:38.2421	3,403088712978359E+000	-2,0735073E-003
27/08/2025 11:22:43.2421	3,392098324775688E+000	-2,0544075E-003
27/08/2025 11:22:48.2421	3,386989623832701E+000	-2,0162079E-003
27/08/2025 11:22:53.2421	3,371130175161362E+000	-2,1117069E-003
27/08/2025 11:22:58.2421	3,360939785337447E+000	-2,0162079E-003
27/08/2025 11:23:03.2421	3,348074557447418E+000	-2,0926071E-003
27/08/2025 11:23:08.2421	3,340813735055917E+000	-2,0926071E-003
27/08/2025 11:23:13.2421	3,326456521320344E+000	-2,0353077E-003
27/08/2025 11:23:18.2421	3,321775629854201E+000	-2,1499067E-003
27/08/2025 11:23:23.2421	3,311246333885194E+000	-2,0926071E-003
27/08/2025 11:23:28.2421	3,305896115779873E+000	-2,1117069E-003
27/08/2025 11:23:33.2421	3,288175725078574E+000	-2,0544075E-003
27/08/2025 11:23:38.2421	3,281711460685727E+000	-2,0735073E-003
27/08/2025 11:23:43.2421	3,277560832691179E+000	-2,0735073E-003
27/08/2025 11:23:48.2421	3,269595298528671E+000	-2,0544075E-003
27/08/2025 11:23:53.2421	3,257936486053466E+000	-2,0735073E-003
27/08/2025 11:23:58.2421	3,246866964101789E+000	-2,1308069E-003
27/08/2025 11:24:03.2421	3,238453119230268E+000	-2,0926071E-003
27/08/2025 11:24:08.2421	3,226582607412332E+000	-2,1499067E-003
27/08/2025 11:24:13.2421	3,215605048370360E+000	-2,0735073E-003
27/08/2025 11:24:18.2421	3,204925128221504E+000	-2,1308069E-003
27/08/2025 11:24:23.2421	3,194649521398539E+000	-2,1308069E-003
27/08/2025 11:24:28.2421	3,180570281744004E+000	-2,1117069E-003
27/08/2025 11:24:33.2421	3,175501394367217E+000	-2,1308069E-003
27/08/2025 11:24:38.2421	3,163885324001310E+000	-2,1117069E-003
27/08/2025 11:24:43.2421	3,152472407865524E+000	-2,0926071E-003
27/08/2025 11:24:48.2421	3,145717460870735E+000	-2,1308069E-003
27/08/2025 11:24:53.2421	3,137126930761337E+000	-2,0926071E-003
27/08/2025 11:24:58.2421	3,124542706584931E+000	-2,0544075E-003
27/08/2025 11:25:03.2421	3,113600457334517E+000	-2,1690065E-003
27/08/2025 11:25:08.2421	3,106432648515701E+000	-2,0926071E-003
27/08/2025 11:25:13.2421	3,091073919534679E+000	-2,0353077E-003
27/08/2025 11:25:18.2421	3,085633444404600E+000	-2,1690065E-003
27/08/2025 11:25:23.2421	3,078472575759886E+000	-2,1117069E-003
27/08/2025 11:25:28.2421	3,064870597171783E+000	-2,1881063E-003
27/08/2025 11:25:33.2421	3,051805659198756E+000	-2,1308069E-003
27/08/2025 11:25:38.2421	3,049895144748682E+000	-2,1499067E-003
27/08/2025 11:25:43.2421	3,037071199417115E+000	-2,0926071E-003
27/08/2025 11:25:48.2421	3,028705623817443E+000	-2,0162079E-003
27/08/2025 11:25:53.2421	3,015415039825434E+000	-2,1690065E-003
27/08/2025 11:25:58.2421	3,012179795980455E+000	-2,2263059E-003
27/08/2025 11:26:03.2421	3,002918207311630E+000	-2,1308069E-003
27/08/2025 11:26:08.2421	2,991377873086925E+000	-2,0544075E-003
27/08/2025 11:26:13.2421	2,977929270982742E+000	-2,1308069E-003
27/08/2025 11:26:18.2421	2,972351860046381E+000	-2,0926071E-003
27/08/2025 11:26:23.2421	2,955478336620331E+000	-1,9589085E-003
27/08/2025 11:26:28.2421	2,952670874261848E+000	-2,1690065E-003
27/08/2025 11:26:33.2421	2,944734497547145E+000	-2,1690065E-003
27/08/2025 11:26:38.2421	2,938167402267453E+000	-2,0926071E-003
27/08/2025 11:26:43.2421	2,934130592107771E+000	-2,0735073E-003
27/08/2025 11:26:48.2421	2,920457170343397E+000	-2,1690065E-003
27/08/2025 11:26:53.2421	2,910965847635268E+000	-2,2263059E-003
27/08/2025 11:26:58.2421	2,907363088655472E+000	-2,1690065E-003
27/08/2025 11:27:03.2421	2,897582355213160E+000	-2,2072061E-003
27/08/2025 11:27:08.2421	2,895772935819626E+000	-2,0735073E-003
27/08/2025 11:27:13.2421	2,886902580595016E+000	-2,2454057E-003
27/08/2025 11:27:18.2421	2,871144241952894E+000	-1,9971081E-003
27/08/2025 11:27:23.2421	2,864086702489850E+000	-2,0353077E-003
27/08/2025 11:27:28.2421	2,856855688667295E+000	-2,1690065E-003
27/08/2025 11:27:33.2421	2,851180140924448E+000	-2,0544075E-003
27/08/2025 11:27:38.2421	2,839311062431335E+000	-2,0926071E-003
27/08/2025 11:27:43.2421	2,830553262042997E+000	-2,0926071E-003
27/08/2025 11:27:48.2421	2,823980967235563E+000	-2,1499067E-003
27/08/2025 11:27:53.2421	2,815310680341721E+000	-2,0735073E-003
27/08/2025 11:27:58.2421	2,803710047340388E+000	-2,1499067E-003
27/08/2025 11:28:03.2421	2,794595646095274E+000	-2,0735073E-003
27/08/2025 11:28:08.2421	2,780641638231273E+000	-2,0162079E-003
27/08/2025 11:28:13.2421	2,775407241582869E+000	-2,0735073E-003
27/08/2025 11:28:18.2421	2,763162941026678E+000	-2,1308069E-003
27/08/2025 11:28:23.2421	2,756413482618331E+000	-2,0353077E-003
27/08/2025 11:28:28.2421	2,750932838344575E+000	-2,1499067E-003
27/08/2025 11:28:33.2421	2,741254625320430E+000	-2,0926071E-003
27/08/2025 11:28:38.2421	2,732826680183411E+000	-2,0735073E-003
27/08/2025 11:28:43.2421	2,722401311492916E+000	-2,1499067E-003
27/08/2025 11:28:48.2421	2,720078232812881E+000	-2,1690065E-003
27/08/2025 11:28:53.2421	2,712180550193786E+000	-2,2263059E-003
27/08/2025 11:28:58.2421	2,701808594989778E+000	-2,1499067E-003
27/08/2025 11:29:03.2421	2,694753099870681E+000	-2,1499067E-003
27/08/2025 11:29:08.2421	2,686819107770916E+000	-2,1881063E-003
27/08/2025 11:29:13.2421	2,682874583005905E+000	-2,1499067E-003
27/08/2025 11:29:18.2421	2,670271653509138E+000	-2,1308069E-003
27/08/2025 11:29:23.2421	2,661256759595869E+000	-2,0926071E-003
27/08/2025 11:29:28.2421	2,653435081863400E+000	-2,1881063E-003
27/08/2025 11:29:33.2421	2,647958839988704E+000	-2,0353077E-003
27/08/2025 11:29:38.2421	2,641410579872131E+000	-2,1117069E-003
27/08/2025 11:29:43.2421	2,633344217824934E+000	-2,1117069E-003
27/08/2025 11:29:48.2421	2,631395834922790E+000	-2,0926071E-003
27/08/2025 11:29:53.2421	2,615321618032455E+000	-2,2072061E-003
27/08/2025 11:29:58.2421	2,612647867584222E+000	-2,1499067E-003
27/08/2025 11:30:03.2421	2,605826061820984E+000	-2,1690065E-003
27/08/2025 11:30:08.2421	2,604600663757324E+000	-2,0353077E-003
27/08/2025 11:30:13.2421	2,587550249624243E+000	-2,0926071E-003
27/08/2025 11:30:18.2421	2,583876370048523E+000	-1,9780083E-003
27/08/2025 11:30:23.2421	2,572174575376510E+000	-2,0162079E-003
27/08/2025 11:30:28.2421	2,564336634969706E+000	-2,1117069E-003
27/08/2025 11:30:33.2421	2,555448146152493E+000	-2,1117069E-003
27/08/2025 11:30:38.2421	2,547519397974014E+000	-2,1881063E-003
27/08/2025 11:30:43.2421	2,540949992084499E+000	-2,0926071E-003
27/08/2025 11:30:48.2421	2,533182692766182E+000	-2,1881063E-003
27/08/2025 11:30:53.2421	2,522334995841980E+000	-2,1690065E-003
27/08/2025 11:30:58.2421	2,517070249557495E+000	-2,1881063E-003
27/08/2025 11:31:03.2421	2,504474333477020E+000	-2,0926071E-003
27/08/2025 11:31:08.2421	2,495328351593017E+000	-2,0735073E-003
27/08/2025 11:31:13.2421	2,494693457508085E+000	-2,1881063E-003
27/08/2025 11:31:18.2421	2,486422828054426E+000	-2,0544075E-003
27/08/2025 11:31:23.2421	2,479867411279677E+000	-2,1881063E-003
27/08/2025 11:31:28.2421	2,468583436059944E+000	-2,1308069E-003
27/08/2025 11:31:33.2421	2,475807374477387E+000	-2,2263059E-003
27/08/2025 11:31:38.2421	2,458994160938262E+000	-2,0735073E-003
27/08/2025 11:31:43.2421	2,454436006689072E+000	-2,1690065E-003
27/08/2025 11:31:48.2421	2,440874842453001E+000	-2,0544075E-003
27/08/2025 11:31:53.2421	2,429646688175200E+000	-2,0162079E-003
27/08/2025 11:31:58.2421	2,424995844078065E+000	-2,1690065E-003
27/08/2025 11:32:03.2421	2,416839278841017E+000	-1,9398087E-003
27/08/2025 11:32:08.2421	2,415943906354901E+000	-2,1499067E-003
27/08/2025 11:32:13.2421	2,402734113597866E+000	-2,0162079E-003
27/08/2025 11:32:18.2421	2,398334908294679E+000	-2,2454057E-003
27/08/2025 11:32:23.2421	2,380866203069687E+000	-2,0926071E-003
27/08/2025 11:32:28.2421	2,376729451322554E+000	-2,0926071E-003
27/08/2025 11:32:33.2421	2,373838836097718E+000	-2,0926071E-003
27/08/2025 11:32:38.2421	2,365383445835111E+000	-2,0544075E-003
27/08/2025 11:32:43.2421	2,358575423240659E+000	-2,0353077E-003
27/08/2025 11:32:48.2421	2,345921670913697E+000	-2,1117069E-003
27/08/2025 11:32:53.2421	2,341753928089140E+000	-2,1499067E-003
27/08/2025 11:32:58.2421	2,334889268302909E+000	-2,1117069E-003
27/08/2025 11:33:03.2421	2,337253905487053E+000	-2,1881063E-003
27/08/2025 11:33:08.2421	2,324308418035505E+000	-2,2072061E-003
27/08/2025 11:33:13.2421	2,320705092477795E+000	-2,0926071E-003
27/08/2025 11:33:18.2421	2,310283892869949E+000	-2,1308069E-003
27/08/2025 11:33:23.2421	2,306433871698378E+000	-2,1117069E-003
27/08/2025 11:33:28.2421	2,297348441410065E+000	-2,1117069E-003
27/08/2025 11:33:33.2421	2,292461926698682E+000	-2,1308069E-003
27/08/2025 11:33:38.2421	2,280216289758677E+000	-2,2072061E-003
27/08/2025 11:33:43.2421	2,269833380222316E+000	-2,0353077E-003
27/08/2025 11:33:48.2421	2,268248022127150E+000	-2,0926071E-003
27/08/2025 11:33:53.2421	2,260946485614776E+000	-2,0735073E-003
27/08/2025 11:33:58.2421	2,253292091226577E+000	-2,1499067E-003
27/08/2025 11:34:03.2421	2,246408999061579E+000	-2,1117069E-003
27/08/2025 11:34:08.2421	2,239371007204056E+000	-2,1690065E-003
27/08/2025 11:34:13.2421	2,231819217109674E+000	-2,1117069E-003
27/08/2025 11:34:18.2421	2,228769342851635E+000	-2,1117069E-003
27/08/2025 11:34:23.2421	2,221124075126646E+000	-2,1690065E-003
27/08/2025 11:34:28.2421	2,213304050207138E+000	-2,1117069E-003
27/08/2025 11:34:33.2421	2,204590485620500E+000	-2,1117069E-003
27/08/2025 11:34:38.2421	2,201522811079025E+000	-2,1117069E-003
27/08/2025 11:34:43.2421	2,192122635889049E+000	-2,2263059E-003
27/08/2025 11:34:48.2421	2,184163803529739E+000	-2,1690065E-003
27/08/2025 11:34:53.2421	2,174551341629019E+000	-1,9971081E-003
27/08/2025 11:34:58.2421	2,179410252714156E+000	-2,0353077E-003
27/08/2025 11:35:03.2421	2,167981906032558E+000	-2,0353077E-003
27/08/2025 11:35:08.2421	2,160648647737496E+000	-2,1117069E-003
27/08/2025 11:35:13.2421	2,160249390220642E+000	-2,1117069E-003
27/08/2025 11:35:18.2421	2,151066621446603E+000	-2,1499067E-003
27/08/2025 11:35:23.2421	2,147568049716945E+000	-2,0735073E-003
27/08/2025 11:35:28.2421	2,137633254671094E+000	-2,0735073E-003
27/08/2025 11:35:33.2421	2,128586044740676E+000	-2,0926071E-003
27/08/2025 11:35:38.2421	2,125945062637330E+000	-2,1690065E-003
27/08/2025 11:35:43.2421	2,125175805425641E+000	-2,1308069E-003
27/08/2025 11:35:48.2421	2,114583914566040E+000	-2,1499067E-003
27/08/2025 11:35:53.2421	2,110364769792554E+000	-2,1690065E-003
27/08/2025 11:35:58.2421	2,108596307373046E+000	-2,0926071E-003
27/08/2025 11:36:03.2421	2,098807821559905E+000	-2,0735073E-003
27/08/2025 11:36:08.2421	2,086521105194091E+000	-2,1690065E-003
27/08/2025 11:36:13.2421	2,083184767961498E+000	-2,0544075E-003
27/08/2025 11:36:18.2421	2,072992035675050E+000	-2,0926071E-003
27/08/2025 11:36:23.2421	2,069591563367840E+000	-2,1117069E-003
27/08/2025 11:36:28.2421	2,060661064720153E+000	-2,1308069E-003
27/08/2025 11:36:33.2421	2,052826424407957E+000	-2,1308069E-003
27/08/2025 11:36:38.2421	2,039054403400421E+000	-2,0544075E-003
27/08/2025 11:36:43.2421	2,041907554340362E+000	-2,1117069E-003
27/08/2025 11:36:48.2421	2,035867166614533E+000	-2,1499067E-003
27/08/2025 11:36:53.2421	2,021929179811480E+000	-2,1117069E-003
27/08/2025 11:36:58.2421	2,020291241049762E+000	-2,1690065E-003
27/08/2025 11:37:03.2421	2,012415600323678E+000	-2,1881063E-003
27/08/2025 11:37:08.2421	2,004371961975089E+000	-2,1881063E-003
27/08/2025 11:37:13.2421	1,994727522373196E+000	-2,0544075E-003
27/08/2025 11:37:18.2421	1,996248037457462E+000	-2,1308069E-003
27/08/2025 11:37:23.2421	1,985860660386081E+000	-2,2263059E-003
27/08/2025 11:37:28.2421	1,978195340514183E+000	-2,1499067E-003
27/08/2025 11:37:33.2421	1,976125707840919E+000	-2,0926071E-003
27/08/2025 11:37:38.2421	1,966994319868085E+000	-2,0926071E-003
27/08/2025 11:37:43.2421	1,959428939437863E+000	-2,0735073E-003
27/08/2025 11:37:48.2421	1,958567071056365E+000	-2,2454057E-003
27/08/2025 11:37:53.2421	1,953440252518654E+000	-2,1499067E-003
27/08/2025 11:37:58.2421	1,950387681412693E+000	-2,0735073E-003
27/08/2025 11:38:03.2421	1,938738278007506E+000	-2,1881063E-003
27/08/2025 11:38:08.2421	1,932155650377272E+000	-2,1881063E-003
27/08/2025 11:38:13.2421	1,932520312428473E+000	-2,1308069E-003
27/08/2025 11:38:18.2421	1,925146786999701E+000	-2,1117069E-003
27/08/2025 11:38:23.2421	1,914069936919212E+000	-2,1499067E-003
27/08/2025 11:38:28.2421	1,913701834249498E+000	-2,1499067E-003
27/08/2025 11:38:33.2421	1,908312811231612E+000	-2,1117069E-003
27/08/2025 11:38:38.2421	1,902064683413505E+000	-2,0735073E-003
27/08/2025 11:38:43.2420	1,893833578610412E+000	-2,1499067E-003
27/08/2025 11:38:48.2420	1,888840272426606E+000	-2,0926071E-003
27/08/2025 11:38:53.2420	1,887548014116284E+000	-2,1690065E-003
27/08/2025 11:38:58.2420	1,879285726952549E+000	-2,2072061E-003
27/08/2025 11:39:03.2420	1,867428176307678E+000	-2,1690065E-003
27/08/2025 11:39:08.2420	1,865839425015444E+000	-2,1499067E-003
27/08/2025 11:39:13.2420	1,859110409712791E+000	-2,0735073E-003
27/08/2025 11:39:18.2420	1,860420877265931E+000	-2,1117069E-003
27/08/2025 11:39:23.2420	1,853205787181854E+000	-2,0926071E-003
27/08/2025 11:39:28.2420	1,845332454085348E+000	-2,1499067E-003
27/08/2025 11:39:33.2420	1,842408884024620E+000	-2,0735073E-003
27/08/2025 11:39:38.2420	1,838448730444906E+000	-1,9016090E-003
27/08/2025 11:39:43.2420	1,827721887755395E+000	-2,2263059E-003
27/08/2025 11:39:48.2420	1,820402002930635E+000	-2,1308069E-003
27/08/2025 11:39:53.2420	1,822904205489158E+000	-2,1881063E-003
27/08/2025 11:39:58.2420	1,811453875231742E+000	-2,1499067E-003
27/08/2025 11:40:03.2420	1,806964316320418E+000	-2,0544075E-003
27/08/2025 11:40:08.2420	1,801000820136070E+000	-2,0162079E-003
27/08/2025 11:40:13.2420	1,800851036047931E+000	-2,1308069E-003
27/08/2025 11:40:18.2420	1,786388149762153E+000	-2,2454057E-003
27/08/2025 11:40:23.2420	1,779130264425277E+000	-2,1117069E-003
27/08/2025 11:40:28.2420	1,782148411631582E+000	-2,1308069E-003
27/08/2025 11:40:33.2420	1,776392633509637E+000	-2,0544075E-003
27/08/2025 11:40:38.2420	1,762011032581329E+000	-2,0735073E-003
27/08/2025 11:40:43.2420	1,754317533850669E+000	-2,2454057E-003
27/08/2025 11:40:48.2420	1,756120148587225E+000	-2,1499067E-003
27/08/2025 11:40:53.2420	1,751098307943341E+000	-2,1308069E-003
27/08/2025 11:40:58.2420	1,747903414583206E+000	-2,1690065E-003
27/08/2025 11:41:03.2420	1,737231155562400E+000	-2,2072061E-003
27/08/2025 11:41:08.2420	1,736217654228209E+000	-2,0735073E-003
27/08/2025 11:41:13.2420	1,730676115083689E+000	-2,0735073E-003
27/08/2025 11:41:18.2420	1,720611524796482E+000	-2,1308069E-003
27/08/2025 11:41:23.2420	1,718957469701763E+000	-2,1308069E-003
27/08/2025 11:41:28.2420	1,713934247112274E+000	-2,1499067E-003
27/08/2025 11:41:33.2420	1,706839813899993E+000	-2,0544075E-003
27/08/2025 11:41:38.2420	1,702475996422768E+000	-2,1499067E-003
27/08/2025 11:41:43.2420	1,704417495489119E+000	-2,1308069E-003
27/08/2025 11:41:48.2420	1,697537111353874E+000	-2,1117069E-003
27/08/2025 11:41:53.2420	1,684999148201939E+000	-2,1308069E-003
27/08/2025 11:41:58.2420	1,684945542049409E+000	-2,1308069E-003
27/08/2025 11:42:03.2420	1,684296816110603E+000	-2,2263059E-003
27/08/2025 11:42:08.2420	1,671852638339992E+000	-2,0735073E-003
27/08/2025 11:42:13.2420	1,668384229183197E+000	-2,1308069E-003
27/08/2025 11:42:18.2420	1,665523516702652E+000	-2,1117069E-003
27/08/2025 11:42:23.2420	1,663266287326812E+000	-2,1881063E-003
27/08/2025 11:42:28.2420	1,659485085487365E+000	-2,0926071E-003
27/08/2025 11:42:33.2420	1,645585140657417E+000	-2,0544075E-003
27/08/2025 11:42:38.2420	1,644363963413237E+000	-2,2263059E-003
27/08/2025 11:42:43.2420	1,641914371442795E+000	-2,2263059E-003
27/08/2025 11:42:48.2420	1,638402089548111E+000	-2,1690065E-003
27/08/2025 11:42:53.2420	1,633940217924118E+000	-2,1690065E-003
27/08/2025 11:42:58.2420	1,622432495665549E+000	-2,0735073E-003
27/08/2025 11:43:03.2420	1,617706411170960E+000	-2,1690065E-003
27/08/2025 11:43:08.2420	1,612538254237172E+000	-2,0735073E-003
27/08/2025 11:43:13.2420	1,607970242309570E+000	-2,0735073E-003
27/08/2025 11:43:18.2420	1,602158346891400E+000	-2,1117069E-003
27/08/2025 11:43:23.2420	1,595799359154700E+000	-2,1308069E-003
27/08/2025 11:43:28.2420	1,593330872058868E+000	-2,0735073E-003
27/08/2025 11:43:33.2420	1,590256490540501E+000	-2,1881063E-003
27/08/2025 11:43:38.2420	1,585608111095429E+000	-2,0735073E-003
27/08/2025 11:43:43.2420	1,570893869328499E+000	-2,0162079E-003
27/08/2025 11:43:48.2420	1,569205128955840E+000	-2,1308069E-003
27/08/2025 11:43:53.2420	1,568356604027748E+000	-2,0926071E-003
27/08/2025 11:43:58.2420	1,560640055465697E+000	-2,2072061E-003
27/08/2025 11:44:03.2420	1,553034086275099E+000	-2,0926071E-003
27/08/2025 11:44:08.2420	1,551222890615463E+000	-2,1499067E-003
27/08/2025 11:44:13.2420	1,547156116676328E+000	-2,0926071E-003
27/08/2025 11:44:18.2420	1,543722224640845E+000	-2,0926071E-003
27/08/2025 11:44:23.2420	1,538393248248100E+000	-1,9780083E-003
27/08/2025 11:44:28.2420	1,539919834589957E+000	-2,1117069E-003
27/08/2025 11:44:33.2420	1,533220368885992E+000	-2,1117069E-003
27/08/2025 11:44:38.2420	1,526970759201049E+000	-2,2072061E-003
27/08/2025 11:44:43.2420	1,518147985148428E+000	-2,1499067E-003
27/08/2025 11:44:48.2420	1,512619587302208E+000	-2,1690065E-003
27/08/2025 11:44:53.2420	1,516263696861268E+000	-2,1308069E-003
27/08/2025 11:44:58.2420	1,504393950843809E+000	-2,0162079E-003
27/08/2025 11:45:03.2420	1,500084651017188E+000	-2,1499067E-003
27/08/2025 11:45:08.2420	1,499849065661429E+000	-2,2072061E-003
27/08/2025 11:45:13.2420	1,497161550855633E+000	-2,0353077E-003
27/08/2025 11:45:18.2420	1,493584251308441E+000	-2,0353077E-003
27/08/2025 11:45:23.2420	1,485938863873482E+000	-2,0544075E-003
27/08/2025 11:45:28.2420	1,486494427490234E+000	-1,9971081E-003
27/08/2025 11:45:33.2420	1,482203523206707E+000	-1,9971081E-003
27/08/2025 11:45:38.2420	1,476865735554693E+000	-2,0926071E-003
27/08/2025 11:45:43.2420	1,470035268807411E+000	-2,1308069E-003
27/08/2025 11:45:48.2420	1,474470527672764E+000	-2,0926071E-003
27/08/2025 11:45:53.2420	1,466236221837997E+000	-2,1690065E-003
27/08/2025 11:45:58.2420	1,456299455571173E+000	-1,9971081E-003
27/08/2025 11:46:03.2420	1,451945591974255E+000	-2,1117069E-003
27/08/2025 11:46:08.2420	1,454596245098113E+000	-2,1690065E-003
27/08/2025 11:46:13.2420	1,437307964849471E+000	-2,1881063E-003
27/08/2025 11:46:18.2420	1,439561290526388E+000	-2,0544075E-003
27/08/2025 11:46:23.2420	1,437679763913155E+000	-2,1881063E-003
27/08/2025 11:46:28.2420	1,437949751877785E+000	-2,1117069E-003
27/08/2025 11:46:33.2420	1,429084758687019E+000	-2,0735073E-003
27/08/2025 11:46:38.2420	1,420382858920097E+000	-2,0735073E-003
27/08/2025 11:46:43.2420	1,419350749254226E+000	-2,1881063E-003
27/08/2025 11:46:48.2420	1,416556157493588E+000	-1,9971081E-003
27/08/2025 11:46:53.2420	1,409222154045104E+000	-2,0735073E-003
27/08/2025 11:46:58.2420	1,400445861411093E+000	-2,0162079E-003
27/08/2025 11:47:03.2420	1,398039447498322E+000	-2,0735073E-003
27/08/2025 11:47:08.2420	1,398146068644522E+000	-2,0926071E-003
27/08/2025 11:47:13.2420	1,385698228549956E+000	-2,1499067E-003
27/08/2025 11:47:18.2420	1,383148521113394E+000	-2,1117069E-003
27/08/2025 11:47:23.2420	1,388911445569992E+000	-2,1117069E-003
27/08/2025 11:47:28.2420	1,380061064696310E+000	-2,1499067E-003
27/08/2025 11:47:33.2420	1,373599804067609E+000	-2,0926071E-003
27/08/2025 11:47:38.2420	1,374377647900580E+000	-2,1308069E-003
27/08/2025 11:47:43.2420	1,370669322133065E+000	-2,1308069E-003
27/08/2025 11:47:48.2420	1,360294981384275E+000	-2,1690065E-003
27/08/2025 11:47:53.2420	1,360005991196632E+000	-2,1499067E-003
27/08/2025 11:47:58.2420	1,353499783754348E+000	-2,2454057E-003
27/08/2025 11:48:03.2420	1,348186168026920E+000	-2,1690065E-003
27/08/2025 11:48:08.2420	1,342291744232174E+000	-2,0926071E-003
27/08/2025 11:48:13.2420	1,336043669390676E+000	-2,0735073E-003
27/08/2025 11:48:18.2420	1,332432843136788E+000	-2,0735073E-003
27/08/2025 11:48:23.2420	1,325629960846900E+000	-2,1690065E-003
27/08/2025 11:48:28.2420	1,325609840536114E+000	-2,1499067E-003
27/08/2025 11:48:33.2420	1,322495109868049E+000	-2,2263059E-003
27/08/2025 11:48:38.2420	1,322463078117369E+000	-2,0926071E-003
27/08/2025 11:48:43.2420	1,319166684150694E+000	-2,1117069E-003
27/08/2025 11:48:48.2420	1,314667479133604E+000	-2,1881063E-003
27/08/2025 11:48:53.2420	1,308829898500442E+000	-2,2454057E-003
27/08/2025 11:48:58.2420	1,308893644690514E+000	-2,0544075E-003
27/08/2025 11:49:03.2420	1,308660359239578E+000	-2,1881063E-003
27/08/2025 11:49:08.2420	1,298239939475060E+000	-2,1117069E-003
27/08/2025 11:49:13.2420	1,295173158168793E+000	-2,0735073E-003
27/08/2025 11:49:18.2420	1,294123016166687E+000	-2,0544075E-003
27/08/2025 11:49:23.2420	1,285551744627952E+000	-2,1881063E-003
27/08/2025 11:49:28.2420	1,285374395704269E+000	-2,1308069E-003
27/08/2025 11:49:33.2420	1,278718594384193E+000	-2,0735073E-003
27/08/2025 11:49:38.2420	1,276709458780287E+000	-2,0544075E-003
27/08/2025 11:49:43.2420	1,272081869029998E+000	-2,1499067E-003
27/08/2025 11:49:48.2420	1,263895289897917E+000	-2,1881063E-003
27/08/2025 11:49:53.2420	1,262181731939316E+000	-2,1690065E-003
27/08/2025 11:49:58.2420	1,259034643554687E+000	-2,1690065E-003
27/08/2025 11:50:03.2420	1,259060414242743E+000	-2,1881063E-003
27/08/2025 11:50:08.2420	1,247918883895871E+000	-2,2454057E-003
27/08/2025 11:50:13.2420	1,245473186469074E+000	-2,1881063E-003
27/08/2025 11:50:18.2420	1,239501221776008E+000	-2,0162079E-003
27/08/2025 11:50:23.2420	1,237835129833222E+000	-2,1117069E-003
27/08/2025 11:50:28.2420	1,236131588125225E+000	-2,1117069E-003
27/08/2025 11:50:33.2420	1,231639284682272E+000	-2,1117069E-003
27/08/2025 11:50:38.2420	1,230607945227622E+000	-2,2072061E-003
27/08/2025 11:50:43.2420	1,225437732958794E+000	-2,0735073E-003
27/08/2025 11:50:48.2420	1,229047547984123E+000	-2,1308069E-003
27/08/2025 11:50:53.2420	1,225838812112805E+000	-2,0926071E-003
27/08/2025 11:50:58.2420	1,221473680806159E+000	-2,1117069E-003
27/08/2025 11:51:03.2420	1,216645312881468E+000	-2,0926071E-003
27/08/2025 11:51:08.2420	1,212964756751060E+000	-2,1308069E-003
27/08/2025 11:51:13.2420	1,207443192315100E+000	-2,2072061E-003
27/08/2025 11:51:18.2420	1,194289825868605E+000	-2,0735073E-003
27/08/2025 11:51:23.2420	1,201448844909667E+000	-2,1308069E-003
27/08/2025 11:51:28.2420	1,201898948264121E+000	-2,1499067E-003
27/08/2025 11:51:33.2420	1,193543626189232E+000	-2,1499067E-003
27/08/2025 11:51:38.2420	1,190844972419740E+000	-2,1690065E-003
27/08/2025 11:51:43.2420	1,193758608174324E+000	-2,1117069E-003
27/08/2025 11:51:48.2420	1,187696766543390E+000	-2,0735073E-003
27/08/2025 11:51:53.2420	1,182996306276319E+000	-2,0926071E-003
27/08/2025 11:51:58.2420	1,178872710967064E+000	-2,1499067E-003
27/08/2025 11:52:03.2420	1,176911339950562E+000	-2,1308069E-003
27/08/2025 11:52:08.2420	1,171347236180305E+000	-1,9971081E-003
27/08/2025 11:52:13.2420	1,160577181816101E+000	-2,1499067E-003
27/08/2025 11:52:18.2420	1,159426341986656E+000	-2,1881063E-003
27/08/2025 11:52:23.2420	1,160816891598701E+000	-2,1881063E-003
27/08/2025 11:52:28.2420	1,149350662398337E+000	-2,1308069E-003
27/08/2025 11:52:33.2420	1,146309282493590E+000	-2,1690065E-003
27/08/2025 11:52:38.2420	1,140178885364531E+000	-1,9971081E-003
27/08/2025 11:52:43.2420	1,141447414994239E+000	-2,0353077E-003
27/08/2025 11:52:48.2420	1,139567487072945E+000	-2,2836053E-003
27/08/2025 11:52:53.2420	1,134927292728422E+000	-2,1499067E-003
27/08/2025 11:52:58.2420	1,126439968729017E+000	-2,1308069E-003
27/08/2025 11:53:03.2420	1,124612726044653E+000	-2,1117069E-003
27/08/2025 11:53:08.2420	1,118969162392617E+000	-2,0735073E-003
27/08/2025 11:53:13.2420	1,119919997477531E+000	-2,1690065E-003
27/08/2025 11:53:18.2420	1,112979030489921E+000	-2,1499067E-003
27/08/2025 11:53:23.2420	1,117401707744598E+000	-2,1499067E-003
27/08/2025 11:53:28.2420	1,110977891445160E+000	-2,2645055E-003
27/08/2025 11:53:33.2420	1,103567198491096E+000	-2,1499067E-003
27/08/2025 11:53:38.2420	1,108400351548195E+000	-2,0544075E-003
27/08/2025 11:53:43.2420	1,102038758325575E+000	-2,1499067E-003
27/08/2025 11:53:48.2420	1,104355660057067E+000	-2,0735073E-003
27/08/2025 11:53:53.2420	1,098535863685608E+000	-2,1499067E-003
27/08/2025 11:53:58.2420	1,099444390964508E+000	-2,0735073E-003
27/08/2025 11:54:03.2420	1,091578969955443E+000	-2,2072061E-003
27/08/2025 11:54:08.2420	1,093604250764844E+000	-2,0735073E-003
27/08/2025 11:54:13.2420	1,089639044046402E+000	-2,0544075E-003
27/08/2025 11:54:18.2420	1,084618663835526E+000	-2,1499067E-003
27/08/2025 11:54:23.2420	1,085384390902517E+000	-2,1690065E-003
27/08/2025 11:54:28.2420	1,072464931941032E+000	-2,1690065E-003
27/08/2025 11:54:33.2420	1,069283483839035E+000	-2,0162079E-003
27/08/2025 11:54:38.2420	1,072599177169800E+000	-2,1690065E-003
27/08/2025 11:54:43.2420	1,062782913303373E+000	-1,9780083E-003
27/08/2025 11:54:48.2420	1,060349860095975E+000	-2,2072061E-003
27/08/2025 11:54:53.2420	1,054465736222266E+000	-2,2072061E-003
27/08/2025 11:54:58.2420	1,058857543110847E+000	-2,1690065E-003
27/08/2025 11:55:03.2420	1,052855610942841E+000	-2,0926071E-003
27/08/2025 11:55:08.2420	1,052176252984999E+000	-2,1117069E-003
27/08/2025 11:55:13.2420	1,051558231353759E+000	-2,0353077E-003
27/08/2025 11:55:18.2420	1,049438947987556E+000	-2,1690065E-003
27/08/2025 11:55:23.2420	1,048078280329705E+000	-2,0544075E-003
27/08/2025 11:55:28.2420	1,035000041508674E+000	-2,0926071E-003
27/08/2025 11:55:33.2420	1,035116079688072E+000	-2,0926071E-003
27/08/2025 11:55:38.2420	1,037684055590629E+000	-2,0735073E-003
27/08/2025 11:55:43.2420	1,024453558444975E+000	-2,0544075E-003
27/08/2025 11:55:48.2420	1,020292684745787E+000	-2,1308069E-003
27/08/2025 11:55:53.2420	1,025091125309466E+000	-2,0544075E-003
27/08/2025 11:55:58.2420	1,018478253138065E+000	-2,0926071E-003
27/08/2025 11:56:03.2420	1,008423706901072E+000	-2,0544075E-003
27/08/2025 11:56:08.2420	1,009026203215118E+000	-2,0735073E-003
27/08/2025 11:56:13.2420	1,009826435554027E+000	-2,2645055E-003
27/08/2025 11:56:18.2420	1,004819538629054E+000	-2,1308069E-003
27/08/2025 11:56:23.2420	1,003984301304815E+000	-2,1117069E-003
27/08/2025 11:56:28.2420	1,009519774830341E+000	-2,1308069E-003
27/08/2025 11:56:33.2420	1,002241963505745E+000	-2,1499067E-003
27/08/2025 11:56:38.2420	9,961841167449950E-001	-2,2263059E-003
27/08/2025 11:56:43.2420	9,923743416905406E-001	-2,0544075E-003
27/08/2025 11:56:48.2420	9,943268565297103E-001	-2,0926071E-003
27/08/2025 11:56:53.2420	9,920493126630774E-001	-2,1117069E-003
27/08/2025 11:56:58.2420	9,873321716427799E-001	-2,1117069E-003
27/08/2025 11:57:03.2420	9,830951275587090E-001	-2,1690065E-003
27/08/2025 11:57:08.2420	9,818476901054378E-001	-2,0162079E-003
27/08/2025 11:57:13.2420	9,708590936183921E-001	-2,1117069E-003
27/08/2025 11:57:18.2420	9,682739638686186E-001	-2,0735073E-003
27/08/2025 11:57:23.2420	9,684633864283541E-001	-2,0735073E-003
27/08/2025 11:57:28.2420	9,649589068889617E-001	-2,0926071E-003
27/08/2025 11:57:33.2420	9,535791070342050E-001	-2,0926071E-003
27/08/2025 11:57:38.2420	9,562511065483079E-001	-2,1117069E-003
27/08/2025 11:57:43.2420	9,576033180117598E-001	-2,2072061E-003
27/08/2025 11:57:48.2420	9,513874509572986E-001	-2,2836053E-003
27/08/2025 11:57:53.2420	9,465832960009557E-001	-2,0735073E-003
27/08/2025 11:57:58.2420	9,425020670413966E-001	-2,1308069E-003
27/08/2025 11:58:03.2420	9,426259380578995E-001	-2,1117069E-003
27/08/2025 11:58:08.2420	9,416014197826375E-001	-2,0735073E-003
27/08/2025 11:58:13.2420	9,354181796193117E-001	-2,0353077E-003
27/08/2025 11:58:18.2420	9,373938817143443E-001	-2,1308069E-003
27/08/2025 11:58:23.2420	9,294114310503012E-001	-2,0162079E-003
27/08/2025 11:58:28.2420	9,339496225237838E-001	-2,1881063E-003
27/08/2025 11:58:33.2420	9,267238198041881E-001	-2,0926071E-003
27/08/2025 11:58:38.2420	9,210343780517540E-001	-2,1499067E-003
27/08/2025 11:58:43.2420	9,233581887721982E-001	-2,1881063E-003
27/08/2025 11:58:48.2420	9,209998151898384E-001	-2,0926071E-003
27/08/2025 11:58:53.2420	9,129528671026215E-001	-2,1308069E-003
27/08/2025 11:58:58.2420	9,168340944170943E-001	-2,2072061E-003
27/08/2025 11:59:03.2420	9,185365597248065E-001	-2,0926071E-003
27/08/2025 11:59:08.2420	9,104732087969758E-001	-2,2072061E-003
27/08/2025 11:59:13.2420	9,052315149426420E-001	-2,0926071E-003
27/08/2025 11:59:18.2420	9,045153679013254E-001	-2,1117069E-003
27/08/2025 11:59:23.2420	9,068777159452424E-001	-2,1117069E-003
27/08/2025 11:59:28.2420	9,037780000209779E-001	-2,1117069E-003
27/08/2025 11:59:33.2420	8,937621296405780E-001	-2,1881063E-003
27/08/2025 11:59:38.2420	8,947098491191845E-001	-2,0544075E-003
27/08/2025 11:59:43.2420	8,903502507567396E-001	-2,1499067E-003
27/08/2025 11:59:48.2420	8,900624276161189E-001	-2,2263059E-003
27/08/2025 11:59:53.2420	8,887636497974363E-001	-2,2454057E-003
27/08/2025 11:59:58.2420	8,829754720330243E-001	-2,1308069E-003
27/08/2025 12:00:03.2420	8,795677892923308E-001	-2,1308069E-003
27/08/2025 12:00:08.2420	8,772355566024785E-001	-2,0735073E-003
27/08/2025 12:00:13.2420	8,740880248308187E-001	-2,1117069E-003
27/08/2025 12:00:17.1942	8,723741181005427E-001	-2,0353077E-003